"","ACC_cutoff","RT_min","RT_max","RT_sd_cutoff","split_by","averaging_method","estimate","low","high","nPar","nTrial","nTrialperPar","pPar","pTrial","task","measure"
"1",0,0,2000,0,"subject","mean",0.72209,0.6323,0.79364,107,46974,439.009345794393,1,0.914602803738318,"Stroop_1","internal_consistency"
"2",0.8,0,2000,0,"subject","mean",0.72174,0.6373,0.79323,107,46974,439.009345794393,1,0.914602803738318,"Stroop_1","internal_consistency"
"3",0.9,0,2000,0,"subject","mean",0.72454,0.64347,0.79348,107,46974,439.009345794393,1,0.914602803738318,"Stroop_1","internal_consistency"
"4",0,100,2000,0,"subject","mean",0.72806,0.62902,0.80205,107,46925,438.551401869159,1,0.913648753894081,"Stroop_1","internal_consistency"
"5",0.8,100,2000,0,"subject","mean",0.72648,0.60436,0.80275,107,46925,438.551401869159,1,0.913648753894081,"Stroop_1","internal_consistency"
"6",0.9,100,2000,0,"subject","mean",0.72622,0.63423,0.80056,107,46925,438.551401869159,1,0.913648753894081,"Stroop_1","internal_consistency"
"7",0,200,2000,0,"subject","mean",0.71159,0.60136,0.79731,107,46891,438.233644859813,1,0.912986760124611,"Stroop_1","internal_consistency"
"8",0.8,200,2000,0,"subject","mean",0.71143,0.59985,0.79764,107,46891,438.233644859813,1,0.912986760124611,"Stroop_1","internal_consistency"
"9",0.9,200,2000,0,"subject","mean",0.70961,0.59068,0.79501,107,46891,438.233644859813,1,0.912986760124611,"Stroop_1","internal_consistency"
"10",0,0,3000,0,"subject","mean",0.72494,0.63865,0.80377,107,47120,440.373831775701,1,0.917445482866044,"Stroop_1","internal_consistency"
"11",0.8,0,3000,0,"subject","mean",0.72164,0.63018,0.79765,107,47120,440.373831775701,1,0.917445482866044,"Stroop_1","internal_consistency"
"12",0.9,0,3000,0,"subject","mean",0.72421,0.6267,0.79669,107,47120,440.373831775701,1,0.917445482866044,"Stroop_1","internal_consistency"
"13",0,100,3000,0,"subject","mean",0.73227,0.63945,0.80945,107,47071,439.915887850467,1,0.916491433021807,"Stroop_1","internal_consistency"
"14",0.8,100,3000,0,"subject","mean",0.72983,0.63421,0.80871,107,47071,439.915887850467,1,0.916491433021807,"Stroop_1","internal_consistency"
"15",0.9,100,3000,0,"subject","mean",0.72894,0.63361,0.80322,107,47071,439.915887850467,1,0.916491433021807,"Stroop_1","internal_consistency"
"16",0,200,3000,0,"subject","mean",0.71657,0.60985,0.79589,107,47037,439.598130841121,1,0.915829439252336,"Stroop_1","internal_consistency"
"17",0.8,200,3000,0,"subject","mean",0.71371,0.60625,0.79987,107,47037,439.598130841121,1,0.915829439252336,"Stroop_1","internal_consistency"
"18",0.9,200,3000,0,"subject","mean",0.71511,0.60347,0.80166,107,47037,439.598130841121,1,0.915829439252336,"Stroop_1","internal_consistency"
"19",0,0,2000,1,"subject","mean",0.6845,0.57946,0.7719,107,35186,328.841121495327,1,0.685085669781931,"Stroop_1","internal_consistency"
"20",0.8,0,2000,1,"subject","mean",0.67979,0.57277,0.76512,107,35186,328.841121495327,1,0.685085669781931,"Stroop_1","internal_consistency"
"21",0.9,0,2000,1,"subject","mean",0.68426,0.57873,0.76717,107,35186,328.841121495327,1,0.685085669781931,"Stroop_1","internal_consistency"
"22",0,100,2000,1,"subject","mean",0.71258,0.60643,0.78688,107,35135,328.364485981308,1,0.684092679127726,"Stroop_1","internal_consistency"
"23",0.8,100,2000,1,"subject","mean",0.71023,0.59651,0.78836,107,35135,328.364485981308,1,0.684092679127726,"Stroop_1","internal_consistency"
"24",0.9,100,2000,1,"subject","mean",0.70945,0.59468,0.78816,107,35135,328.364485981308,1,0.684092679127726,"Stroop_1","internal_consistency"
"25",0,200,2000,1,"subject","mean",0.72668,0.60964,0.80922,107,35103,328.065420560748,1,0.683469626168224,"Stroop_1","internal_consistency"
"26",0.8,200,2000,1,"subject","mean",0.72437,0.59629,0.80539,107,35103,328.065420560748,1,0.683469626168224,"Stroop_1","internal_consistency"
"27",0.9,200,2000,1,"subject","mean",0.7238,0.61806,0.80093,107,35103,328.065420560748,1,0.683469626168224,"Stroop_1","internal_consistency"
"28",0,0,3000,1,"subject","mean",0.74099,0.65474,0.80849,107,36190,338.224299065421,1,0.704633956386293,"Stroop_1","internal_consistency"
"29",0.8,0,3000,1,"subject","mean",0.74048,0.6555,0.82301,107,36190,338.224299065421,1,0.704633956386293,"Stroop_1","internal_consistency"
"30",0.9,0,3000,1,"subject","mean",0.74197,0.65386,0.81636,107,36190,338.224299065421,1,0.704633956386293,"Stroop_1","internal_consistency"
"31",0,100,3000,1,"subject","mean",0.76116,0.66267,0.83007,107,36147,337.822429906542,1,0.703796728971963,"Stroop_1","internal_consistency"
"32",0.8,100,3000,1,"subject","mean",0.76498,0.6777,0.83479,107,36147,337.822429906542,1,0.703796728971963,"Stroop_1","internal_consistency"
"33",0.9,100,3000,1,"subject","mean",0.76011,0.67116,0.82557,107,36147,337.822429906542,1,0.703796728971963,"Stroop_1","internal_consistency"
"34",0,200,3000,1,"subject","mean",0.77097,0.68049,0.8432,107,36116,337.532710280374,1,0.703193146417445,"Stroop_1","internal_consistency"
"35",0.8,200,3000,1,"subject","mean",0.7731,0.68803,0.83783,107,36116,337.532710280374,1,0.703193146417445,"Stroop_1","internal_consistency"
"36",0.9,200,3000,1,"subject","mean",0.7702,0.67001,0.8435,107,36116,337.532710280374,1,0.703193146417445,"Stroop_1","internal_consistency"
"37",0,0,2000,2,"subject","mean",0.75583,0.67501,0.82702,107,44853,419.18691588785,1,0.873306074766355,"Stroop_1","internal_consistency"
"38",0.8,0,2000,2,"subject","mean",0.75808,0.67109,0.82462,107,44853,419.18691588785,1,0.873306074766355,"Stroop_1","internal_consistency"
"39",0.9,0,2000,2,"subject","mean",0.75432,0.67411,0.82525,107,44853,419.18691588785,1,0.873306074766355,"Stroop_1","internal_consistency"
"40",0,100,2000,2,"subject","mean",0.76271,0.68346,0.83269,107,44811,418.794392523364,1,0.872488317757009,"Stroop_1","internal_consistency"
"41",0.8,100,2000,2,"subject","mean",0.76732,0.67966,0.83107,107,44811,418.794392523364,1,0.872488317757009,"Stroop_1","internal_consistency"
"42",0.9,100,2000,2,"subject","mean",0.76565,0.67263,0.82791,107,44811,418.794392523364,1,0.872488317757009,"Stroop_1","internal_consistency"
"43",0,200,2000,2,"subject","mean",0.75998,0.66793,0.82655,107,44779,418.495327102804,1,0.871865264797508,"Stroop_1","internal_consistency"
"44",0.8,200,2000,2,"subject","mean",0.75824,0.65422,0.82815,107,44779,418.495327102804,1,0.871865264797508,"Stroop_1","internal_consistency"
"45",0.9,200,2000,2,"subject","mean",0.76328,0.68236,0.82985,107,44779,418.495327102804,1,0.871865264797508,"Stroop_1","internal_consistency"
"46",0,0,3000,2,"subject","mean",0.76585,0.69508,0.83148,107,45101,421.504672897196,1,0.878134735202492,"Stroop_1","internal_consistency"
"47",0.8,0,3000,2,"subject","mean",0.77172,0.6955,0.83743,107,45101,421.504672897196,1,0.878134735202492,"Stroop_1","internal_consistency"
"48",0.9,0,3000,2,"subject","mean",0.7706,0.69652,0.8318,107,45101,421.504672897196,1,0.878134735202492,"Stroop_1","internal_consistency"
"49",0,100,3000,2,"subject","mean",0.77424,0.69489,0.84049,107,45058,421.102803738318,1,0.877297507788162,"Stroop_1","internal_consistency"
"50",0.8,100,3000,2,"subject","mean",0.77359,0.69588,0.84163,107,45058,421.102803738318,1,0.877297507788162,"Stroop_1","internal_consistency"
"51",0.9,100,3000,2,"subject","mean",0.77577,0.69629,0.83807,107,45058,421.102803738318,1,0.877297507788162,"Stroop_1","internal_consistency"
"52",0,200,3000,2,"subject","mean",0.77262,0.68214,0.83915,107,45026,420.803738317757,1,0.87667445482866,"Stroop_1","internal_consistency"
"53",0.8,200,3000,2,"subject","mean",0.77109,0.70121,0.83681,107,45026,420.803738317757,1,0.87667445482866,"Stroop_1","internal_consistency"
"54",0.9,200,3000,2,"subject","mean",0.77139,0.6747,0.83643,107,45026,420.803738317757,1,0.87667445482866,"Stroop_1","internal_consistency"
"55",0,0,2000,3,"subject","mean",0.75391,0.6669,0.82294,107,46244,432.18691588785,1,0.900389408099688,"Stroop_1","internal_consistency"
"56",0.8,0,2000,3,"subject","mean",0.75443,0.67005,0.82101,107,46244,432.18691588785,1,0.900389408099688,"Stroop_1","internal_consistency"
"57",0.9,0,2000,3,"subject","mean",0.75594,0.67497,0.8215,107,46244,432.18691588785,1,0.900389408099688,"Stroop_1","internal_consistency"
"58",0,100,2000,3,"subject","mean",0.75815,0.66338,0.82581,107,46197,431.747663551402,1,0.899474299065421,"Stroop_1","internal_consistency"
"59",0.8,100,2000,3,"subject","mean",0.75386,0.66029,0.82759,107,46197,431.747663551402,1,0.899474299065421,"Stroop_1","internal_consistency"
"60",0.9,100,2000,3,"subject","mean",0.75551,0.66807,0.82472,107,46197,431.747663551402,1,0.899474299065421,"Stroop_1","internal_consistency"
"61",0,200,2000,3,"subject","mean",0.74393,0.64074,0.82269,107,46163,431.429906542056,1,0.89881230529595,"Stroop_1","internal_consistency"
"62",0.8,200,2000,3,"subject","mean",0.74518,0.64891,0.81975,107,46163,431.429906542056,1,0.89881230529595,"Stroop_1","internal_consistency"
"63",0.9,200,2000,3,"subject","mean",0.74255,0.62836,0.8172,107,46163,431.429906542056,1,0.89881230529595,"Stroop_1","internal_consistency"
"64",0,0,3000,3,"subject","mean",0.75179,0.66536,0.81689,107,46372,433.383177570093,1,0.902881619937695,"Stroop_1","internal_consistency"
"65",0.8,0,3000,3,"subject","mean",0.75588,0.6799,0.81306,107,46372,433.383177570093,1,0.902881619937695,"Stroop_1","internal_consistency"
"66",0.9,0,3000,3,"subject","mean",0.75397,0.67335,0.82274,107,46372,433.383177570093,1,0.902881619937695,"Stroop_1","internal_consistency"
"67",0,100,3000,3,"subject","mean",0.75904,0.67436,0.82785,107,46324,432.934579439252,1,0.901947040498442,"Stroop_1","internal_consistency"
"68",0.8,100,3000,3,"subject","mean",0.75897,0.6637,0.83197,107,46324,432.934579439252,1,0.901947040498442,"Stroop_1","internal_consistency"
"69",0.9,100,3000,3,"subject","mean",0.76096,0.67233,0.82712,107,46324,432.934579439252,1,0.901947040498442,"Stroop_1","internal_consistency"
"70",0,200,3000,3,"subject","mean",0.7461,0.63534,0.82483,107,46290,432.616822429907,1,0.901285046728972,"Stroop_1","internal_consistency"
"71",0.8,200,3000,3,"subject","mean",0.74732,0.65629,0.82317,107,46290,432.616822429907,1,0.901285046728972,"Stroop_1","internal_consistency"
"72",0.9,200,3000,3,"subject","mean",0.74915,0.65073,0.82875,107,46290,432.616822429907,1,0.901285046728972,"Stroop_1","internal_consistency"
"73",0,0,2000,0,"trial","mean",0.72083,0.61857,0.7997,107,46974,439.009345794393,1,0.914602803738318,"Stroop_1","internal_consistency"
"74",0.8,0,2000,0,"trial","mean",0.72423,0.63794,0.80082,107,46974,439.009345794393,1,0.914602803738318,"Stroop_1","internal_consistency"
"75",0.9,0,2000,0,"trial","mean",0.72189,0.61818,0.79549,107,46974,439.009345794393,1,0.914602803738318,"Stroop_1","internal_consistency"
"76",0,100,2000,0,"trial","mean",0.728,0.63788,0.80276,107,46925,438.551401869159,1,0.913648753894081,"Stroop_1","internal_consistency"
"77",0.8,100,2000,0,"trial","mean",0.72803,0.63573,0.80461,107,46925,438.551401869159,1,0.913648753894081,"Stroop_1","internal_consistency"
"78",0.9,100,2000,0,"trial","mean",0.7312,0.63376,0.8095,107,46925,438.551401869159,1,0.913648753894081,"Stroop_1","internal_consistency"
"79",0,200,2000,0,"trial","mean",0.71639,0.59191,0.80993,107,46891,438.233644859813,1,0.912986760124611,"Stroop_1","internal_consistency"
"80",0.8,200,2000,0,"trial","mean",0.70555,0.58397,0.79519,107,46891,438.233644859813,1,0.912986760124611,"Stroop_1","internal_consistency"
"81",0.9,200,2000,0,"trial","mean",0.70986,0.59959,0.79961,107,46891,438.233644859813,1,0.912986760124611,"Stroop_1","internal_consistency"
"82",0,0,3000,0,"trial","mean",0.72922,0.64714,0.80958,107,47120,440.373831775701,1,0.917445482866044,"Stroop_1","internal_consistency"
"83",0.8,0,3000,0,"trial","mean",0.72715,0.63585,0.80364,107,47120,440.373831775701,1,0.917445482866044,"Stroop_1","internal_consistency"
"84",0.9,0,3000,0,"trial","mean",0.72653,0.64047,0.80481,107,47120,440.373831775701,1,0.917445482866044,"Stroop_1","internal_consistency"
"85",0,100,3000,0,"trial","mean",0.7334,0.64393,0.8136,107,47071,439.915887850467,1,0.916491433021807,"Stroop_1","internal_consistency"
"86",0.8,100,3000,0,"trial","mean",0.72761,0.62505,0.8056,107,47071,439.915887850467,1,0.916491433021807,"Stroop_1","internal_consistency"
"87",0.9,100,3000,0,"trial","mean",0.73359,0.63788,0.81351,107,47071,439.915887850467,1,0.916491433021807,"Stroop_1","internal_consistency"
"88",0,200,3000,0,"trial","mean",0.71522,0.59119,0.79875,107,47037,439.598130841121,1,0.915829439252336,"Stroop_1","internal_consistency"
"89",0.8,200,3000,0,"trial","mean",0.71612,0.61019,0.80633,107,47037,439.598130841121,1,0.915829439252336,"Stroop_1","internal_consistency"
"90",0.9,200,3000,0,"trial","mean",0.71446,0.59313,0.79948,107,47037,439.598130841121,1,0.915829439252336,"Stroop_1","internal_consistency"
"91",0,0,2000,1,"trial","mean",0.9126,0.88229,0.93529,107,35055,327.616822429907,1,0.682535046728972,"Stroop_1","internal_consistency"
"92",0.8,0,2000,1,"trial","mean",0.91245,0.88201,0.93632,107,35055,327.616822429907,1,0.682535046728972,"Stroop_1","internal_consistency"
"93",0.9,0,2000,1,"trial","mean",0.91265,0.88728,0.93732,107,35055,327.616822429907,1,0.682535046728972,"Stroop_1","internal_consistency"
"94",0,100,2000,1,"trial","mean",0.92361,0.89796,0.94419,107,34998,327.084112149533,1,0.68142523364486,"Stroop_1","internal_consistency"
"95",0.8,100,2000,1,"trial","mean",0.92386,0.89834,0.94414,107,34998,327.084112149533,1,0.68142523364486,"Stroop_1","internal_consistency"
"96",0.9,100,2000,1,"trial","mean",0.92497,0.899,0.9474,107,34998,327.084112149533,1,0.68142523364486,"Stroop_1","internal_consistency"
"97",0,200,2000,1,"trial","mean",0.92013,0.88997,0.94343,107,34973,326.85046728972,1,0.680938473520249,"Stroop_1","internal_consistency"
"98",0.8,200,2000,1,"trial","mean",0.92002,0.88796,0.94129,107,34973,326.85046728972,1,0.680938473520249,"Stroop_1","internal_consistency"
"99",0.9,200,2000,1,"trial","mean",0.92009,0.88591,0.94294,107,34973,326.85046728972,1,0.680938473520249,"Stroop_1","internal_consistency"
"100",0,0,3000,1,"trial","mean",0.91332,0.8851,0.9394,107,35917,335.672897196262,1,0.699318535825545,"Stroop_1","internal_consistency"
"101",0.8,0,3000,1,"trial","mean",0.91378,0.88608,0.93797,107,35917,335.672897196262,1,0.699318535825545,"Stroop_1","internal_consistency"
"102",0.9,0,3000,1,"trial","mean",0.91366,0.88597,0.93824,107,35917,335.672897196262,1,0.699318535825545,"Stroop_1","internal_consistency"
"103",0,100,3000,1,"trial","mean",0.92436,0.89662,0.94463,107,35857,335.11214953271,1,0.69815031152648,"Stroop_1","internal_consistency"
"104",0.8,100,3000,1,"trial","mean",0.9244,0.89574,0.94586,107,35857,335.11214953271,1,0.69815031152648,"Stroop_1","internal_consistency"
"105",0.9,100,3000,1,"trial","mean",0.92444,0.89873,0.94513,107,35857,335.11214953271,1,0.69815031152648,"Stroop_1","internal_consistency"
"106",0,200,3000,1,"trial","mean",0.9204,0.8916,0.94333,107,35831,334.869158878505,1,0.697644080996885,"Stroop_1","internal_consistency"
"107",0.8,200,3000,1,"trial","mean",0.92088,0.89286,0.94334,107,35831,334.869158878505,1,0.697644080996885,"Stroop_1","internal_consistency"
"108",0.9,200,3000,1,"trial","mean",0.91988,0.88958,0.94346,107,35831,334.869158878505,1,0.697644080996885,"Stroop_1","internal_consistency"
"109",0,0,2000,2,"trial","mean",0.82479,0.76701,0.87511,107,44867,419.317757009346,1,0.873578660436137,"Stroop_1","internal_consistency"
"110",0.8,0,2000,2,"trial","mean",0.82504,0.76663,0.86997,107,44867,419.317757009346,1,0.873578660436137,"Stroop_1","internal_consistency"
"111",0.9,0,2000,2,"trial","mean",0.82193,0.76365,0.87187,107,44867,419.317757009346,1,0.873578660436137,"Stroop_1","internal_consistency"
"112",0,100,2000,2,"trial","mean",0.83463,0.78175,0.87656,107,44824,418.915887850467,1,0.872741433021807,"Stroop_1","internal_consistency"
"113",0.8,100,2000,2,"trial","mean",0.83443,0.77332,0.8814,107,44824,418.915887850467,1,0.872741433021807,"Stroop_1","internal_consistency"
"114",0.9,100,2000,2,"trial","mean",0.83099,0.771,0.88049,107,44824,418.915887850467,1,0.872741433021807,"Stroop_1","internal_consistency"
"115",0,200,2000,2,"trial","mean",0.81478,0.73097,0.87061,107,44792,418.616822429907,1,0.872118380062305,"Stroop_1","internal_consistency"
"116",0.8,200,2000,2,"trial","mean",0.8124,0.72696,0.86629,107,44792,418.616822429907,1,0.872118380062305,"Stroop_1","internal_consistency"
"117",0.9,200,2000,2,"trial","mean",0.81121,0.72441,0.8718,107,44792,418.616822429907,1,0.872118380062305,"Stroop_1","internal_consistency"
"118",0,0,3000,2,"trial","mean",0.8274,0.77069,0.87094,107,45078,421.289719626168,1,0.87768691588785,"Stroop_1","internal_consistency"
"119",0.8,0,3000,2,"trial","mean",0.8263,0.76817,0.87402,107,45078,421.289719626168,1,0.87768691588785,"Stroop_1","internal_consistency"
"120",0.9,0,3000,2,"trial","mean",0.82805,0.7647,0.87472,107,45078,421.289719626168,1,0.87768691588785,"Stroop_1","internal_consistency"
"121",0,100,3000,2,"trial","mean",0.83418,0.77432,0.88113,107,45034,420.878504672897,1,0.876830218068536,"Stroop_1","internal_consistency"
"122",0.8,100,3000,2,"trial","mean",0.83304,0.77406,0.88442,107,45034,420.878504672897,1,0.876830218068536,"Stroop_1","internal_consistency"
"123",0.9,100,3000,2,"trial","mean",0.83553,0.78197,0.88196,107,45034,420.878504672897,1,0.876830218068536,"Stroop_1","internal_consistency"
"124",0,200,3000,2,"trial","mean",0.81536,0.73392,0.87038,107,45003,420.588785046729,1,0.876226635514019,"Stroop_1","internal_consistency"
"125",0.8,200,3000,2,"trial","mean",0.81725,0.74405,0.87216,107,45003,420.588785046729,1,0.876226635514019,"Stroop_1","internal_consistency"
"126",0.9,200,3000,2,"trial","mean",0.81762,0.7421,0.8737,107,45003,420.588785046729,1,0.876226635514019,"Stroop_1","internal_consistency"
"127",0,0,2000,3,"trial","mean",0.79821,0.72749,0.85353,107,46259,432.327102803738,1,0.900681464174455,"Stroop_1","internal_consistency"
"128",0.8,0,2000,3,"trial","mean",0.79802,0.73397,0.85445,107,46259,432.327102803738,1,0.900681464174455,"Stroop_1","internal_consistency"
"129",0.9,0,2000,3,"trial","mean",0.79974,0.73738,0.85391,107,46259,432.327102803738,1,0.900681464174455,"Stroop_1","internal_consistency"
"130",0,100,2000,3,"trial","mean",0.8064,0.73852,0.85843,107,46213,431.897196261682,1,0.899785825545171,"Stroop_1","internal_consistency"
"131",0.8,100,2000,3,"trial","mean",0.80636,0.72768,0.85935,107,46213,431.897196261682,1,0.899785825545171,"Stroop_1","internal_consistency"
"132",0.9,100,2000,3,"trial","mean",0.80406,0.73334,0.86351,107,46213,431.897196261682,1,0.899785825545171,"Stroop_1","internal_consistency"
"133",0,200,2000,3,"trial","mean",0.79324,0.7134,0.85543,107,46179,431.579439252336,1,0.899123831775701,"Stroop_1","internal_consistency"
"134",0.8,200,2000,3,"trial","mean",0.79317,0.70771,0.85518,107,46179,431.579439252336,1,0.899123831775701,"Stroop_1","internal_consistency"
"135",0.9,200,2000,3,"trial","mean",0.79488,0.71876,0.85687,107,46179,431.579439252336,1,0.899123831775701,"Stroop_1","internal_consistency"
"136",0,0,3000,3,"trial","mean",0.80257,0.73574,0.86179,107,46379,433.448598130841,1,0.903017912772586,"Stroop_1","internal_consistency"
"137",0.8,0,3000,3,"trial","mean",0.80503,0.74498,0.85905,107,46379,433.448598130841,1,0.903017912772586,"Stroop_1","internal_consistency"
"138",0.9,0,3000,3,"trial","mean",0.80083,0.73132,0.857,107,46379,433.448598130841,1,0.903017912772586,"Stroop_1","internal_consistency"
"139",0,100,3000,3,"trial","mean",0.81204,0.74491,0.86286,107,46332,433.009345794393,1,0.902102803738318,"Stroop_1","internal_consistency"
"140",0.8,100,3000,3,"trial","mean",0.80888,0.73907,0.86418,107,46332,433.009345794393,1,0.902102803738318,"Stroop_1","internal_consistency"
"141",0.9,100,3000,3,"trial","mean",0.81266,0.74151,0.86741,107,46332,433.009345794393,1,0.902102803738318,"Stroop_1","internal_consistency"
"142",0,200,3000,3,"trial","mean",0.80117,0.72153,0.86366,107,46297,432.682242990654,1,0.901421339563863,"Stroop_1","internal_consistency"
"143",0.8,200,3000,3,"trial","mean",0.80263,0.71559,0.86103,107,46297,432.682242990654,1,0.901421339563863,"Stroop_1","internal_consistency"
"144",0.9,200,3000,3,"trial","mean",0.80067,0.70182,0.85964,107,46297,432.682242990654,1,0.901421339563863,"Stroop_1","internal_consistency"
"145",0,0,2000,0,"subject","median",0.75367,0.66663,0.81881,107,46974,439.009345794393,1,0.914602803738318,"Stroop_1","internal_consistency"
"146",0.8,0,2000,0,"subject","median",0.75393,0.66543,0.82146,107,46974,439.009345794393,1,0.914602803738318,"Stroop_1","internal_consistency"
"147",0.9,0,2000,0,"subject","median",0.75494,0.66806,0.82124,107,46974,439.009345794393,1,0.914602803738318,"Stroop_1","internal_consistency"
"148",0,100,2000,0,"subject","median",0.76173,0.66735,0.84032,107,46925,438.551401869159,1,0.913648753894081,"Stroop_1","internal_consistency"
"149",0.8,100,2000,0,"subject","median",0.76399,0.67378,0.82909,107,46925,438.551401869159,1,0.913648753894081,"Stroop_1","internal_consistency"
"150",0.9,100,2000,0,"subject","median",0.76649,0.67885,0.82952,107,46925,438.551401869159,1,0.913648753894081,"Stroop_1","internal_consistency"
"151",0,200,2000,0,"subject","median",0.75917,0.65998,0.83697,107,46891,438.233644859813,1,0.912986760124611,"Stroop_1","internal_consistency"
"152",0.8,200,2000,0,"subject","median",0.75779,0.66043,0.83333,107,46891,438.233644859813,1,0.912986760124611,"Stroop_1","internal_consistency"
"153",0.9,200,2000,0,"subject","median",0.75959,0.65052,0.83503,107,46891,438.233644859813,1,0.912986760124611,"Stroop_1","internal_consistency"
"154",0,0,3000,0,"subject","median",0.7654,0.69429,0.83277,107,47120,440.373831775701,1,0.917445482866044,"Stroop_1","internal_consistency"
"155",0.8,0,3000,0,"subject","median",0.76398,0.6904,0.83214,107,47120,440.373831775701,1,0.917445482866044,"Stroop_1","internal_consistency"
"156",0.9,0,3000,0,"subject","median",0.76791,0.69512,0.82971,107,47120,440.373831775701,1,0.917445482866044,"Stroop_1","internal_consistency"
"157",0,100,3000,0,"subject","median",0.7754,0.6929,0.8382,107,47071,439.915887850467,1,0.916491433021807,"Stroop_1","internal_consistency"
"158",0.8,100,3000,0,"subject","median",0.77194,0.68353,0.84382,107,47071,439.915887850467,1,0.916491433021807,"Stroop_1","internal_consistency"
"159",0.9,100,3000,0,"subject","median",0.77183,0.6709,0.84032,107,47071,439.915887850467,1,0.916491433021807,"Stroop_1","internal_consistency"
"160",0,200,3000,0,"subject","median",0.76627,0.65662,0.83627,107,47037,439.598130841121,1,0.915829439252336,"Stroop_1","internal_consistency"
"161",0.8,200,3000,0,"subject","median",0.7688,0.66956,0.83697,107,47037,439.598130841121,1,0.915829439252336,"Stroop_1","internal_consistency"
"162",0.9,200,3000,0,"subject","median",0.76599,0.65624,0.84158,107,47037,439.598130841121,1,0.915829439252336,"Stroop_1","internal_consistency"
"163",0,0,2000,1,"subject","median",0.68241,0.58322,0.77565,107,35186,328.841121495327,1,0.685085669781931,"Stroop_1","internal_consistency"
"164",0.8,0,2000,1,"subject","median",0.67892,0.56396,0.77358,107,35186,328.841121495327,1,0.685085669781931,"Stroop_1","internal_consistency"
"165",0.9,0,2000,1,"subject","median",0.67947,0.56878,0.76687,107,35186,328.841121495327,1,0.685085669781931,"Stroop_1","internal_consistency"
"166",0,100,2000,1,"subject","median",0.69378,0.5558,0.79186,107,35135,328.364485981308,1,0.684092679127726,"Stroop_1","internal_consistency"
"167",0.8,100,2000,1,"subject","median",0.69597,0.56423,0.78841,107,35135,328.364485981308,1,0.684092679127726,"Stroop_1","internal_consistency"
"168",0.9,100,2000,1,"subject","median",0.69385,0.55351,0.79383,107,35135,328.364485981308,1,0.684092679127726,"Stroop_1","internal_consistency"
"169",0,200,2000,1,"subject","median",0.71168,0.5686,0.79877,107,35103,328.065420560748,1,0.683469626168224,"Stroop_1","internal_consistency"
"170",0.8,200,2000,1,"subject","median",0.71102,0.55729,0.80773,107,35103,328.065420560748,1,0.683469626168224,"Stroop_1","internal_consistency"
"171",0.9,200,2000,1,"subject","median",0.71751,0.57828,0.80837,107,35103,328.065420560748,1,0.683469626168224,"Stroop_1","internal_consistency"
"172",0,0,3000,1,"subject","median",0.73191,0.62803,0.80685,107,36190,338.224299065421,1,0.704633956386293,"Stroop_1","internal_consistency"
"173",0.8,0,3000,1,"subject","median",0.73624,0.64548,0.80966,107,36190,338.224299065421,1,0.704633956386293,"Stroop_1","internal_consistency"
"174",0.9,0,3000,1,"subject","median",0.73297,0.64657,0.80336,107,36190,338.224299065421,1,0.704633956386293,"Stroop_1","internal_consistency"
"175",0,100,3000,1,"subject","median",0.74568,0.6427,0.81922,107,36147,337.822429906542,1,0.703796728971963,"Stroop_1","internal_consistency"
"176",0.8,100,3000,1,"subject","median",0.74131,0.61981,0.828,107,36147,337.822429906542,1,0.703796728971963,"Stroop_1","internal_consistency"
"177",0.9,100,3000,1,"subject","median",0.74277,0.6442,0.81786,107,36147,337.822429906542,1,0.703796728971963,"Stroop_1","internal_consistency"
"178",0,200,3000,1,"subject","median",0.75485,0.6381,0.83306,107,36116,337.532710280374,1,0.703193146417445,"Stroop_1","internal_consistency"
"179",0.8,200,3000,1,"subject","median",0.75472,0.63283,0.83943,107,36116,337.532710280374,1,0.703193146417445,"Stroop_1","internal_consistency"
"180",0.9,200,3000,1,"subject","median",0.75821,0.64884,0.83231,107,36116,337.532710280374,1,0.703193146417445,"Stroop_1","internal_consistency"
"181",0,0,2000,2,"subject","median",0.74503,0.6656,0.81815,107,44853,419.18691588785,1,0.873306074766355,"Stroop_1","internal_consistency"
"182",0.8,0,2000,2,"subject","median",0.74269,0.6515,0.81069,107,44853,419.18691588785,1,0.873306074766355,"Stroop_1","internal_consistency"
"183",0.9,0,2000,2,"subject","median",0.74788,0.66437,0.81908,107,44853,419.18691588785,1,0.873306074766355,"Stroop_1","internal_consistency"
"184",0,100,2000,2,"subject","median",0.75832,0.66438,0.83454,107,44811,418.794392523364,1,0.872488317757009,"Stroop_1","internal_consistency"
"185",0.8,100,2000,2,"subject","median",0.75468,0.65795,0.82508,107,44811,418.794392523364,1,0.872488317757009,"Stroop_1","internal_consistency"
"186",0.9,100,2000,2,"subject","median",0.7521,0.65876,0.82572,107,44811,418.794392523364,1,0.872488317757009,"Stroop_1","internal_consistency"
"187",0,200,2000,2,"subject","median",0.75986,0.65937,0.83667,107,44779,418.495327102804,1,0.871865264797508,"Stroop_1","internal_consistency"
"188",0.8,200,2000,2,"subject","median",0.76116,0.65812,0.8315,107,44779,418.495327102804,1,0.871865264797508,"Stroop_1","internal_consistency"
"189",0.9,200,2000,2,"subject","median",0.76382,0.65652,0.8396,107,44779,418.495327102804,1,0.871865264797508,"Stroop_1","internal_consistency"
"190",0,0,3000,2,"subject","median",0.75335,0.67678,0.82023,107,45101,421.504672897196,1,0.878134735202492,"Stroop_1","internal_consistency"
"191",0.8,0,3000,2,"subject","median",0.75349,0.65939,0.8197,107,45101,421.504672897196,1,0.878134735202492,"Stroop_1","internal_consistency"
"192",0.9,0,3000,2,"subject","median",0.75321,0.67679,0.824,107,45101,421.504672897196,1,0.878134735202492,"Stroop_1","internal_consistency"
"193",0,100,3000,2,"subject","median",0.76205,0.66651,0.8299,107,45058,421.102803738318,1,0.877297507788162,"Stroop_1","internal_consistency"
"194",0.8,100,3000,2,"subject","median",0.76327,0.67747,0.83969,107,45058,421.102803738318,1,0.877297507788162,"Stroop_1","internal_consistency"
"195",0.9,100,3000,2,"subject","median",0.76662,0.67804,0.83752,107,45058,421.102803738318,1,0.877297507788162,"Stroop_1","internal_consistency"
"196",0,200,3000,2,"subject","median",0.7711,0.66673,0.84126,107,45026,420.803738317757,1,0.87667445482866,"Stroop_1","internal_consistency"
"197",0.8,200,3000,2,"subject","median",0.76609,0.66822,0.83567,107,45026,420.803738317757,1,0.87667445482866,"Stroop_1","internal_consistency"
"198",0.9,200,3000,2,"subject","median",0.76821,0.67224,0.83661,107,45026,420.803738317757,1,0.87667445482866,"Stroop_1","internal_consistency"
"199",0,0,2000,3,"subject","median",0.75131,0.66574,0.82088,107,46244,432.18691588785,1,0.900389408099688,"Stroop_1","internal_consistency"
"200",0.8,0,2000,3,"subject","median",0.75298,0.6783,0.82524,107,46244,432.18691588785,1,0.900389408099688,"Stroop_1","internal_consistency"
"201",0.9,0,2000,3,"subject","median",0.75223,0.67172,0.81989,107,46244,432.18691588785,1,0.900389408099688,"Stroop_1","internal_consistency"
"202",0,100,2000,3,"subject","median",0.759,0.66881,0.82445,107,46197,431.747663551402,1,0.899474299065421,"Stroop_1","internal_consistency"
"203",0.8,100,2000,3,"subject","median",0.76337,0.67026,0.83376,107,46197,431.747663551402,1,0.899474299065421,"Stroop_1","internal_consistency"
"204",0.9,100,2000,3,"subject","median",0.7659,0.67001,0.83626,107,46197,431.747663551402,1,0.899474299065421,"Stroop_1","internal_consistency"
"205",0,200,2000,3,"subject","median",0.75878,0.65409,0.82935,107,46163,431.429906542056,1,0.89881230529595,"Stroop_1","internal_consistency"
"206",0.8,200,2000,3,"subject","median",0.76025,0.66354,0.8272,107,46163,431.429906542056,1,0.89881230529595,"Stroop_1","internal_consistency"
"207",0.9,200,2000,3,"subject","median",0.76724,0.66295,0.84187,107,46163,431.429906542056,1,0.89881230529595,"Stroop_1","internal_consistency"
"208",0,0,3000,3,"subject","median",0.75914,0.67513,0.81794,107,46372,433.383177570093,1,0.902881619937695,"Stroop_1","internal_consistency"
"209",0.8,0,3000,3,"subject","median",0.75801,0.66416,0.82609,107,46372,433.383177570093,1,0.902881619937695,"Stroop_1","internal_consistency"
"210",0.9,0,3000,3,"subject","median",0.75865,0.67634,0.82999,107,46372,433.383177570093,1,0.902881619937695,"Stroop_1","internal_consistency"
"211",0,100,3000,3,"subject","median",0.76964,0.68134,0.84077,107,46324,432.934579439252,1,0.901947040498442,"Stroop_1","internal_consistency"
"212",0.8,100,3000,3,"subject","median",0.76809,0.67106,0.83813,107,46324,432.934579439252,1,0.901947040498442,"Stroop_1","internal_consistency"
"213",0.9,100,3000,3,"subject","median",0.77054,0.67804,0.83686,107,46324,432.934579439252,1,0.901947040498442,"Stroop_1","internal_consistency"
"214",0,200,3000,3,"subject","median",0.76586,0.65818,0.83534,107,46290,432.616822429907,1,0.901285046728972,"Stroop_1","internal_consistency"
"215",0.8,200,3000,3,"subject","median",0.76389,0.65068,0.83238,107,46290,432.616822429907,1,0.901285046728972,"Stroop_1","internal_consistency"
"216",0.9,200,3000,3,"subject","median",0.76566,0.66596,0.83947,107,46290,432.616822429907,1,0.901285046728972,"Stroop_1","internal_consistency"
"217",0,0,2000,0,"trial","median",0.75584,0.67757,0.82904,107,46974,439.009345794393,1,0.914602803738318,"Stroop_1","internal_consistency"
"218",0.8,0,2000,0,"trial","median",0.7532,0.66919,0.82524,107,46974,439.009345794393,1,0.914602803738318,"Stroop_1","internal_consistency"
"219",0.9,0,2000,0,"trial","median",0.75465,0.67333,0.82928,107,46974,439.009345794393,1,0.914602803738318,"Stroop_1","internal_consistency"
"220",0,100,2000,0,"trial","median",0.76261,0.6683,0.83528,107,46925,438.551401869159,1,0.913648753894081,"Stroop_1","internal_consistency"
"221",0.8,100,2000,0,"trial","median",0.76479,0.6717,0.84061,107,46925,438.551401869159,1,0.913648753894081,"Stroop_1","internal_consistency"
"222",0.9,100,2000,0,"trial","median",0.76561,0.67713,0.84095,107,46925,438.551401869159,1,0.913648753894081,"Stroop_1","internal_consistency"
"223",0,200,2000,0,"trial","median",0.75939,0.65889,0.83026,107,46891,438.233644859813,1,0.912986760124611,"Stroop_1","internal_consistency"
"224",0.8,200,2000,0,"trial","median",0.75743,0.65247,0.83179,107,46891,438.233644859813,1,0.912986760124611,"Stroop_1","internal_consistency"
"225",0.9,200,2000,0,"trial","median",0.75961,0.65946,0.83425,107,46891,438.233644859813,1,0.912986760124611,"Stroop_1","internal_consistency"
"226",0,0,3000,0,"trial","median",0.76292,0.68826,0.8325,107,47120,440.373831775701,1,0.917445482866044,"Stroop_1","internal_consistency"
"227",0.8,0,3000,0,"trial","median",0.76362,0.68257,0.82898,107,47120,440.373831775701,1,0.917445482866044,"Stroop_1","internal_consistency"
"228",0.9,0,3000,0,"trial","median",0.76294,0.67971,0.82473,107,47120,440.373831775701,1,0.917445482866044,"Stroop_1","internal_consistency"
"229",0,100,3000,0,"trial","median",0.7752,0.67779,0.83755,107,47071,439.915887850467,1,0.916491433021807,"Stroop_1","internal_consistency"
"230",0.8,100,3000,0,"trial","median",0.76851,0.67123,0.83782,107,47071,439.915887850467,1,0.916491433021807,"Stroop_1","internal_consistency"
"231",0.9,100,3000,0,"trial","median",0.77568,0.69419,0.84979,107,47071,439.915887850467,1,0.916491433021807,"Stroop_1","internal_consistency"
"232",0,200,3000,0,"trial","median",0.76815,0.67256,0.83389,107,47037,439.598130841121,1,0.915829439252336,"Stroop_1","internal_consistency"
"233",0.8,200,3000,0,"trial","median",0.76572,0.66747,0.83384,107,47037,439.598130841121,1,0.915829439252336,"Stroop_1","internal_consistency"
"234",0.9,200,3000,0,"trial","median",0.76551,0.66497,0.84055,107,47037,439.598130841121,1,0.915829439252336,"Stroop_1","internal_consistency"
"235",0,0,2000,1,"trial","median",0.84923,0.80304,0.8912,107,35055,327.616822429907,1,0.682535046728972,"Stroop_1","internal_consistency"
"236",0.8,0,2000,1,"trial","median",0.84749,0.7907,0.88647,107,35055,327.616822429907,1,0.682535046728972,"Stroop_1","internal_consistency"
"237",0.9,0,2000,1,"trial","median",0.85199,0.80554,0.8941,107,35055,327.616822429907,1,0.682535046728972,"Stroop_1","internal_consistency"
"238",0,100,2000,1,"trial","median",0.86954,0.81126,0.90839,107,34998,327.084112149533,1,0.68142523364486,"Stroop_1","internal_consistency"
"239",0.8,100,2000,1,"trial","median",0.87036,0.82476,0.90727,107,34998,327.084112149533,1,0.68142523364486,"Stroop_1","internal_consistency"
"240",0.9,100,2000,1,"trial","median",0.86966,0.82178,0.90757,107,34998,327.084112149533,1,0.68142523364486,"Stroop_1","internal_consistency"
"241",0,200,2000,1,"trial","median",0.8651,0.81875,0.90378,107,34973,326.85046728972,1,0.680938473520249,"Stroop_1","internal_consistency"
"242",0.8,200,2000,1,"trial","median",0.86245,0.80856,0.90376,107,34973,326.85046728972,1,0.680938473520249,"Stroop_1","internal_consistency"
"243",0.9,200,2000,1,"trial","median",0.86472,0.81072,0.90361,107,34973,326.85046728972,1,0.680938473520249,"Stroop_1","internal_consistency"
"244",0,0,3000,1,"trial","median",0.85399,0.80669,0.89473,107,35917,335.672897196262,1,0.699318535825545,"Stroop_1","internal_consistency"
"245",0.8,0,3000,1,"trial","median",0.85473,0.80687,0.89341,107,35917,335.672897196262,1,0.699318535825545,"Stroop_1","internal_consistency"
"246",0.9,0,3000,1,"trial","median",0.85328,0.80301,0.8894,107,35917,335.672897196262,1,0.699318535825545,"Stroop_1","internal_consistency"
"247",0,100,3000,1,"trial","median",0.87209,0.82343,0.9075,107,35857,335.11214953271,1,0.69815031152648,"Stroop_1","internal_consistency"
"248",0.8,100,3000,1,"trial","median",0.87292,0.82897,0.91012,107,35857,335.11214953271,1,0.69815031152648,"Stroop_1","internal_consistency"
"249",0.9,100,3000,1,"trial","median",0.87078,0.82061,0.90906,107,35857,335.11214953271,1,0.69815031152648,"Stroop_1","internal_consistency"
"250",0,200,3000,1,"trial","median",0.86789,0.82098,0.90363,107,35831,334.869158878505,1,0.697644080996885,"Stroop_1","internal_consistency"
"251",0.8,200,3000,1,"trial","median",0.86605,0.81092,0.90609,107,35831,334.869158878505,1,0.697644080996885,"Stroop_1","internal_consistency"
"252",0.9,200,3000,1,"trial","median",0.86633,0.81447,0.90465,107,35831,334.869158878505,1,0.697644080996885,"Stroop_1","internal_consistency"
"253",0,0,2000,2,"trial","median",0.7733,0.69416,0.83659,107,44867,419.317757009346,1,0.873578660436137,"Stroop_1","internal_consistency"
"254",0.8,0,2000,2,"trial","median",0.76785,0.69076,0.83573,107,44867,419.317757009346,1,0.873578660436137,"Stroop_1","internal_consistency"
"255",0.9,0,2000,2,"trial","median",0.77076,0.68029,0.83128,107,44867,419.317757009346,1,0.873578660436137,"Stroop_1","internal_consistency"
"256",0,100,2000,2,"trial","median",0.77848,0.69065,0.84324,107,44824,418.915887850467,1,0.872741433021807,"Stroop_1","internal_consistency"
"257",0.8,100,2000,2,"trial","median",0.7798,0.69041,0.84262,107,44824,418.915887850467,1,0.872741433021807,"Stroop_1","internal_consistency"
"258",0.9,100,2000,2,"trial","median",0.77948,0.70628,0.84551,107,44824,418.915887850467,1,0.872741433021807,"Stroop_1","internal_consistency"
"259",0,200,2000,2,"trial","median",0.77453,0.66537,0.84149,107,44792,418.616822429907,1,0.872118380062305,"Stroop_1","internal_consistency"
"260",0.8,200,2000,2,"trial","median",0.77593,0.66664,0.84538,107,44792,418.616822429907,1,0.872118380062305,"Stroop_1","internal_consistency"
"261",0.9,200,2000,2,"trial","median",0.77874,0.68131,0.84571,107,44792,418.616822429907,1,0.872118380062305,"Stroop_1","internal_consistency"
"262",0,0,3000,2,"trial","median",0.77103,0.69792,0.83286,107,45078,421.289719626168,1,0.87768691588785,"Stroop_1","internal_consistency"
"263",0.8,0,3000,2,"trial","median",0.77268,0.69927,0.8308,107,45078,421.289719626168,1,0.87768691588785,"Stroop_1","internal_consistency"
"264",0.9,0,3000,2,"trial","median",0.77692,0.70508,0.8399,107,45078,421.289719626168,1,0.87768691588785,"Stroop_1","internal_consistency"
"265",0,100,3000,2,"trial","median",0.78111,0.69026,0.84444,107,45034,420.878504672897,1,0.876830218068536,"Stroop_1","internal_consistency"
"266",0.8,100,3000,2,"trial","median",0.78231,0.69048,0.85201,107,45034,420.878504672897,1,0.876830218068536,"Stroop_1","internal_consistency"
"267",0.9,100,3000,2,"trial","median",0.77585,0.69224,0.84088,107,45034,420.878504672897,1,0.876830218068536,"Stroop_1","internal_consistency"
"268",0,200,3000,2,"trial","median",0.77537,0.67709,0.84435,107,45003,420.588785046729,1,0.876226635514019,"Stroop_1","internal_consistency"
"269",0.8,200,3000,2,"trial","median",0.77338,0.67218,0.84625,107,45003,420.588785046729,1,0.876226635514019,"Stroop_1","internal_consistency"
"270",0.9,200,3000,2,"trial","median",0.77576,0.68341,0.84255,107,45003,420.588785046729,1,0.876226635514019,"Stroop_1","internal_consistency"
"271",0,0,2000,3,"trial","median",0.76158,0.6867,0.82416,107,46259,432.327102803738,1,0.900681464174455,"Stroop_1","internal_consistency"
"272",0.8,0,2000,3,"trial","median",0.76245,0.68524,0.82785,107,46259,432.327102803738,1,0.900681464174455,"Stroop_1","internal_consistency"
"273",0.9,0,2000,3,"trial","median",0.75912,0.67606,0.82981,107,46259,432.327102803738,1,0.900681464174455,"Stroop_1","internal_consistency"
"274",0,100,2000,3,"trial","median",0.77261,0.69577,0.84617,107,46213,431.897196261682,1,0.899785825545171,"Stroop_1","internal_consistency"
"275",0.8,100,2000,3,"trial","median",0.76954,0.67744,0.8411,107,46213,431.897196261682,1,0.899785825545171,"Stroop_1","internal_consistency"
"276",0.9,100,2000,3,"trial","median",0.77525,0.69063,0.83815,107,46213,431.897196261682,1,0.899785825545171,"Stroop_1","internal_consistency"
"277",0,200,2000,3,"trial","median",0.76992,0.67109,0.83621,107,46179,431.579439252336,1,0.899123831775701,"Stroop_1","internal_consistency"
"278",0.8,200,2000,3,"trial","median",0.76918,0.67471,0.83468,107,46179,431.579439252336,1,0.899123831775701,"Stroop_1","internal_consistency"
"279",0.9,200,2000,3,"trial","median",0.76985,0.67316,0.84093,107,46179,431.579439252336,1,0.899123831775701,"Stroop_1","internal_consistency"
"280",0,0,3000,3,"trial","median",0.76755,0.68716,0.83339,107,46379,433.448598130841,1,0.903017912772586,"Stroop_1","internal_consistency"
"281",0.8,0,3000,3,"trial","median",0.76755,0.68446,0.83553,107,46379,433.448598130841,1,0.903017912772586,"Stroop_1","internal_consistency"
"282",0.9,0,3000,3,"trial","median",0.76775,0.68982,0.82882,107,46379,433.448598130841,1,0.903017912772586,"Stroop_1","internal_consistency"
"283",0,100,3000,3,"trial","median",0.7779,0.69559,0.85308,107,46332,433.009345794393,1,0.902102803738318,"Stroop_1","internal_consistency"
"284",0.8,100,3000,3,"trial","median",0.78111,0.69965,0.84707,107,46332,433.009345794393,1,0.902102803738318,"Stroop_1","internal_consistency"
"285",0.9,100,3000,3,"trial","median",0.77781,0.69737,0.84599,107,46332,433.009345794393,1,0.902102803738318,"Stroop_1","internal_consistency"
"286",0,200,3000,3,"trial","median",0.77633,0.67656,0.84398,107,46297,432.682242990654,1,0.901421339563863,"Stroop_1","internal_consistency"
"287",0.8,200,3000,3,"trial","median",0.77658,0.68197,0.84906,107,46297,432.682242990654,1,0.901421339563863,"Stroop_1","internal_consistency"
"288",0.9,200,3000,3,"trial","median",0.77731,0.68111,0.84209,107,46297,432.682242990654,1,0.901421339563863,"Stroop_1","internal_consistency"
"289",0,0,2000,0,"subject","mean",0.65761,0.52936,0.75851,107,45829,428.308411214953,1,0.892309190031153,"Stroop_2","internal_consistency"
"290",0.8,0,2000,0,"subject","mean",0.66375,0.532,0.75466,107,45829,428.308411214953,1,0.892309190031153,"Stroop_2","internal_consistency"
"291",0.9,0,2000,0,"subject","mean",0.65979,0.54477,0.75979,107,45829,428.308411214953,1,0.892309190031153,"Stroop_2","internal_consistency"
"292",0,100,2000,0,"subject","mean",0.64521,0.49627,0.75039,107,45701,427.11214953271,1,0.889816978193146,"Stroop_2","internal_consistency"
"293",0.8,100,2000,0,"subject","mean",0.64607,0.51282,0.75428,107,45701,427.11214953271,1,0.889816978193146,"Stroop_2","internal_consistency"
"294",0.9,100,2000,0,"subject","mean",0.64707,0.51908,0.75566,107,45701,427.11214953271,1,0.889816978193146,"Stroop_2","internal_consistency"
"295",0,200,2000,0,"subject","mean",0.61961,0.4107,0.73638,107,45612,426.280373831776,1,0.888084112149533,"Stroop_2","internal_consistency"
"296",0.8,200,2000,0,"subject","mean",0.62313,0.44816,0.73971,107,45612,426.280373831776,1,0.888084112149533,"Stroop_2","internal_consistency"
"297",0.9,200,2000,0,"subject","mean",0.61886,0.45396,0.73799,107,45612,426.280373831776,1,0.888084112149533,"Stroop_2","internal_consistency"
"298",0,0,3000,0,"subject","mean",0.67059,0.53355,0.7728,107,45915,429.11214953271,1,0.893983644859813,"Stroop_2","internal_consistency"
"299",0.8,0,3000,0,"subject","mean",0.66805,0.52463,0.76669,107,45915,429.11214953271,1,0.893983644859813,"Stroop_2","internal_consistency"
"300",0.9,0,3000,0,"subject","mean",0.66866,0.51592,0.77244,107,45915,429.11214953271,1,0.893983644859813,"Stroop_2","internal_consistency"
"301",0,100,3000,0,"subject","mean",0.65662,0.50236,0.76216,107,45787,427.915887850467,1,0.891491433021807,"Stroop_2","internal_consistency"
"302",0.8,100,3000,0,"subject","mean",0.65187,0.49659,0.76119,107,45787,427.915887850467,1,0.891491433021807,"Stroop_2","internal_consistency"
"303",0.9,100,3000,0,"subject","mean",0.65506,0.51213,0.77063,107,45787,427.915887850467,1,0.891491433021807,"Stroop_2","internal_consistency"
"304",0,200,3000,0,"subject","mean",0.62957,0.43653,0.74393,107,45698,427.084112149533,1,0.889758566978193,"Stroop_2","internal_consistency"
"305",0.8,200,3000,0,"subject","mean",0.62843,0.45713,0.74394,107,45698,427.084112149533,1,0.889758566978193,"Stroop_2","internal_consistency"
"306",0.9,200,3000,0,"subject","mean",0.64595,0.48947,0.75656,107,45698,427.084112149533,1,0.889758566978193,"Stroop_2","internal_consistency"
"307",0,0,2000,1,"subject","mean",0.65361,0.5298,0.74859,107,34289,320.457943925234,1,0.667620716510903,"Stroop_2","internal_consistency"
"308",0.8,0,2000,1,"subject","mean",0.64796,0.51938,0.74929,107,34289,320.457943925234,1,0.667620716510903,"Stroop_2","internal_consistency"
"309",0.9,0,2000,1,"subject","mean",0.64635,0.49649,0.75468,107,34289,320.457943925234,1,0.667620716510903,"Stroop_2","internal_consistency"
"310",0,100,2000,1,"subject","mean",0.64078,0.49966,0.74962,107,34207,319.691588785047,1,0.666024143302181,"Stroop_2","internal_consistency"
"311",0.8,100,2000,1,"subject","mean",0.63999,0.48825,0.74821,107,34207,319.691588785047,1,0.666024143302181,"Stroop_2","internal_consistency"
"312",0.9,100,2000,1,"subject","mean",0.63817,0.49332,0.74923,107,34207,319.691588785047,1,0.666024143302181,"Stroop_2","internal_consistency"
"313",0,200,2000,1,"subject","mean",0.64307,0.49061,0.74744,107,34108,318.766355140187,1,0.664096573208723,"Stroop_2","internal_consistency"
"314",0.8,200,2000,1,"subject","mean",0.6454,0.50717,0.75958,107,34108,318.766355140187,1,0.664096573208723,"Stroop_2","internal_consistency"
"315",0.9,200,2000,1,"subject","mean",0.64674,0.50518,0.75804,107,34108,318.766355140187,1,0.664096573208723,"Stroop_2","internal_consistency"
"316",0,0,3000,1,"subject","mean",0.64946,0.52338,0.75161,107,34920,326.355140186916,1,0.679906542056075,"Stroop_2","internal_consistency"
"317",0.8,0,3000,1,"subject","mean",0.65506,0.52476,0.76239,107,34920,326.355140186916,1,0.679906542056075,"Stroop_2","internal_consistency"
"318",0.9,0,3000,1,"subject","mean",0.65411,0.52488,0.75293,107,34920,326.355140186916,1,0.679906542056075,"Stroop_2","internal_consistency"
"319",0,100,3000,1,"subject","mean",0.64233,0.48149,0.75053,107,34878,325.96261682243,1,0.679088785046729,"Stroop_2","internal_consistency"
"320",0.8,100,3000,1,"subject","mean",0.64193,0.49109,0.75018,107,34878,325.96261682243,1,0.679088785046729,"Stroop_2","internal_consistency"
"321",0.9,100,3000,1,"subject","mean",0.64212,0.49636,0.74923,107,34878,325.96261682243,1,0.679088785046729,"Stroop_2","internal_consistency"
"322",0,200,3000,1,"subject","mean",0.63674,0.49591,0.74381,107,34801,325.242990654206,1,0.677589563862928,"Stroop_2","internal_consistency"
"323",0.8,200,3000,1,"subject","mean",0.638,0.476,0.74314,107,34801,325.242990654206,1,0.677589563862928,"Stroop_2","internal_consistency"
"324",0.9,200,3000,1,"subject","mean",0.64069,0.49825,0.75427,107,34801,325.242990654206,1,0.677589563862928,"Stroop_2","internal_consistency"
"325",0,0,2000,2,"subject","mean",0.68864,0.58289,0.78024,107,43788,409.233644859813,1,0.852570093457944,"Stroop_2","internal_consistency"
"326",0.8,0,2000,2,"subject","mean",0.69034,0.57046,0.78453,107,43788,409.233644859813,1,0.852570093457944,"Stroop_2","internal_consistency"
"327",0.9,0,2000,2,"subject","mean",0.69359,0.58206,0.79125,107,43788,409.233644859813,1,0.852570093457944,"Stroop_2","internal_consistency"
"328",0,100,2000,2,"subject","mean",0.6597,0.53771,0.75929,107,43667,408.102803738318,1,0.850214174454829,"Stroop_2","internal_consistency"
"329",0.8,100,2000,2,"subject","mean",0.65736,0.51634,0.75585,107,43667,408.102803738318,1,0.850214174454829,"Stroop_2","internal_consistency"
"330",0.9,100,2000,2,"subject","mean",0.65431,0.521,0.75412,107,43667,408.102803738318,1,0.850214174454829,"Stroop_2","internal_consistency"
"331",0,200,2000,2,"subject","mean",0.63858,0.51132,0.74765,107,43595,407.429906542056,1,0.84881230529595,"Stroop_2","internal_consistency"
"332",0.8,200,2000,2,"subject","mean",0.64362,0.49337,0.75275,107,43595,407.429906542056,1,0.84881230529595,"Stroop_2","internal_consistency"
"333",0.9,200,2000,2,"subject","mean",0.64735,0.50975,0.74373,107,43595,407.429906542056,1,0.84881230529595,"Stroop_2","internal_consistency"
"334",0,0,3000,2,"subject","mean",0.67907,0.53754,0.78141,107,43954,410.785046728972,1,0.855802180685358,"Stroop_2","internal_consistency"
"335",0.8,0,3000,2,"subject","mean",0.67806,0.53646,0.77822,107,43954,410.785046728972,1,0.855802180685358,"Stroop_2","internal_consistency"
"336",0.9,0,3000,2,"subject","mean",0.67895,0.53996,0.77768,107,43954,410.785046728972,1,0.855802180685358,"Stroop_2","internal_consistency"
"337",0,100,3000,2,"subject","mean",0.65005,0.51858,0.7537,107,43830,409.626168224299,1,0.85338785046729,"Stroop_2","internal_consistency"
"338",0.8,100,3000,2,"subject","mean",0.64999,0.51374,0.75747,107,43830,409.626168224299,1,0.85338785046729,"Stroop_2","internal_consistency"
"339",0.9,100,3000,2,"subject","mean",0.64953,0.4908,0.76018,107,43830,409.626168224299,1,0.85338785046729,"Stroop_2","internal_consistency"
"340",0,200,3000,2,"subject","mean",0.64405,0.48186,0.75279,107,43753,408.906542056075,1,0.851888629283489,"Stroop_2","internal_consistency"
"341",0.8,200,3000,2,"subject","mean",0.63976,0.49218,0.74568,107,43753,408.906542056075,1,0.851888629283489,"Stroop_2","internal_consistency"
"342",0.9,200,3000,2,"subject","mean",0.64354,0.50337,0.75341,107,43753,408.906542056075,1,0.851888629283489,"Stroop_2","internal_consistency"
"343",0,0,2000,3,"subject","mean",0.68604,0.57231,0.78211,107,45149,421.953271028037,1,0.879069314641745,"Stroop_2","internal_consistency"
"344",0.8,0,2000,3,"subject","mean",0.68419,0.5599,0.77935,107,45149,421.953271028037,1,0.879069314641745,"Stroop_2","internal_consistency"
"345",0.9,0,2000,3,"subject","mean",0.67853,0.55853,0.77856,107,45149,421.953271028037,1,0.879069314641745,"Stroop_2","internal_consistency"
"346",0,100,2000,3,"subject","mean",0.67411,0.56491,0.76883,107,45016,420.710280373832,1,0.876479750778816,"Stroop_2","internal_consistency"
"347",0.8,100,2000,3,"subject","mean",0.67577,0.5605,0.78081,107,45016,420.710280373832,1,0.876479750778816,"Stroop_2","internal_consistency"
"348",0.9,100,2000,3,"subject","mean",0.67129,0.54929,0.7739,107,45016,420.710280373832,1,0.876479750778816,"Stroop_2","internal_consistency"
"349",0,200,2000,3,"subject","mean",0.67157,0.56441,0.76432,107,44925,419.859813084112,1,0.874707943925234,"Stroop_2","internal_consistency"
"350",0.8,200,2000,3,"subject","mean",0.6659,0.52354,0.77555,107,44925,419.859813084112,1,0.874707943925234,"Stroop_2","internal_consistency"
"351",0.9,200,2000,3,"subject","mean",0.66629,0.51816,0.77205,107,44925,419.859813084112,1,0.874707943925234,"Stroop_2","internal_consistency"
"352",0,0,3000,3,"subject","mean",0.68169,0.5603,0.77926,107,45220,422.616822429907,1,0.880451713395639,"Stroop_2","internal_consistency"
"353",0.8,0,3000,3,"subject","mean",0.6818,0.56761,0.77829,107,45220,422.616822429907,1,0.880451713395639,"Stroop_2","internal_consistency"
"354",0.9,0,3000,3,"subject","mean",0.68032,0.5376,0.78216,107,45220,422.616822429907,1,0.880451713395639,"Stroop_2","internal_consistency"
"355",0,100,3000,3,"subject","mean",0.67613,0.54077,0.77601,107,45092,421.420560747664,1,0.877959501557632,"Stroop_2","internal_consistency"
"356",0.8,100,3000,3,"subject","mean",0.67696,0.53792,0.77903,107,45092,421.420560747664,1,0.877959501557632,"Stroop_2","internal_consistency"
"357",0.9,100,3000,3,"subject","mean",0.67274,0.52372,0.7732,107,45092,421.420560747664,1,0.877959501557632,"Stroop_2","internal_consistency"
"358",0,200,3000,3,"subject","mean",0.65965,0.51903,0.76679,107,45003,420.588785046729,1,0.876226635514019,"Stroop_2","internal_consistency"
"359",0.8,200,3000,3,"subject","mean",0.65759,0.5128,0.7653,107,45003,420.588785046729,1,0.876226635514019,"Stroop_2","internal_consistency"
"360",0.9,200,3000,3,"subject","mean",0.65768,0.52741,0.76019,107,45003,420.588785046729,1,0.876226635514019,"Stroop_2","internal_consistency"
"361",0,0,2000,0,"trial","mean",0.66414,0.52941,0.75834,107,45829,428.308411214953,1,0.892309190031153,"Stroop_2","internal_consistency"
"362",0.8,0,2000,0,"trial","mean",0.65994,0.53791,0.7547,107,45829,428.308411214953,1,0.892309190031153,"Stroop_2","internal_consistency"
"363",0.9,0,2000,0,"trial","mean",0.65991,0.51983,0.76935,107,45829,428.308411214953,1,0.892309190031153,"Stroop_2","internal_consistency"
"364",0,100,2000,0,"trial","mean",0.64499,0.51809,0.74977,107,45701,427.11214953271,1,0.889816978193146,"Stroop_2","internal_consistency"
"365",0.8,100,2000,0,"trial","mean",0.6503,0.50832,0.7507,107,45701,427.11214953271,1,0.889816978193146,"Stroop_2","internal_consistency"
"366",0.9,100,2000,0,"trial","mean",0.64612,0.51961,0.749,107,45701,427.11214953271,1,0.889816978193146,"Stroop_2","internal_consistency"
"367",0,200,2000,0,"trial","mean",0.62221,0.46845,0.73206,107,45612,426.280373831776,1,0.888084112149533,"Stroop_2","internal_consistency"
"368",0.8,200,2000,0,"trial","mean",0.6252,0.44074,0.74012,107,45612,426.280373831776,1,0.888084112149533,"Stroop_2","internal_consistency"
"369",0.9,200,2000,0,"trial","mean",0.61887,0.46417,0.73653,107,45612,426.280373831776,1,0.888084112149533,"Stroop_2","internal_consistency"
"370",0,0,3000,0,"trial","mean",0.67062,0.5328,0.76558,107,45915,429.11214953271,1,0.893983644859813,"Stroop_2","internal_consistency"
"371",0.8,0,3000,0,"trial","mean",0.66917,0.52793,0.7729,107,45915,429.11214953271,1,0.893983644859813,"Stroop_2","internal_consistency"
"372",0.9,0,3000,0,"trial","mean",0.66704,0.50988,0.77414,107,45915,429.11214953271,1,0.893983644859813,"Stroop_2","internal_consistency"
"373",0,100,3000,0,"trial","mean",0.65058,0.50085,0.7604,107,45787,427.915887850467,1,0.891491433021807,"Stroop_2","internal_consistency"
"374",0.8,100,3000,0,"trial","mean",0.65609,0.50992,0.76141,107,45787,427.915887850467,1,0.891491433021807,"Stroop_2","internal_consistency"
"375",0.9,100,3000,0,"trial","mean",0.65421,0.49685,0.76809,107,45787,427.915887850467,1,0.891491433021807,"Stroop_2","internal_consistency"
"376",0,200,3000,0,"trial","mean",0.63056,0.4653,0.75066,107,45698,427.084112149533,1,0.889758566978193,"Stroop_2","internal_consistency"
"377",0.8,200,3000,0,"trial","mean",0.63585,0.46099,0.74743,107,45698,427.084112149533,1,0.889758566978193,"Stroop_2","internal_consistency"
"378",0.9,200,3000,0,"trial","mean",0.63369,0.46019,0.75047,107,45698,427.084112149533,1,0.889758566978193,"Stroop_2","internal_consistency"
"379",0,0,2000,1,"trial","mean",0.90142,0.86314,0.93053,107,34164,319.289719626168,1,0.665186915887851,"Stroop_2","internal_consistency"
"380",0.8,0,2000,1,"trial","mean",0.90038,0.86356,0.92884,107,34164,319.289719626168,1,0.665186915887851,"Stroop_2","internal_consistency"
"381",0.9,0,2000,1,"trial","mean",0.89978,0.85966,0.93032,107,34164,319.289719626168,1,0.665186915887851,"Stroop_2","internal_consistency"
"382",0,100,2000,1,"trial","mean",0.89617,0.8566,0.92835,107,34072,318.429906542056,1,0.663395638629284,"Stroop_2","internal_consistency"
"383",0.8,100,2000,1,"trial","mean",0.8972,0.85383,0.92828,107,34072,318.429906542056,1,0.663395638629284,"Stroop_2","internal_consistency"
"384",0.9,100,2000,1,"trial","mean",0.8957,0.8517,0.92567,107,34072,318.429906542056,1,0.663395638629284,"Stroop_2","internal_consistency"
"385",0,200,2000,1,"trial","mean",0.892,0.85292,0.92383,107,33967,317.448598130841,1,0.661351246105919,"Stroop_2","internal_consistency"
"386",0.8,200,2000,1,"trial","mean",0.89225,0.85451,0.92284,107,33967,317.448598130841,1,0.661351246105919,"Stroop_2","internal_consistency"
"387",0.9,200,2000,1,"trial","mean",0.89257,0.84852,0.92538,107,33967,317.448598130841,1,0.661351246105919,"Stroop_2","internal_consistency"
"388",0,0,3000,1,"trial","mean",0.89144,0.84438,0.92343,107,34757,324.831775700935,1,0.676732866043614,"Stroop_2","internal_consistency"
"389",0.8,0,3000,1,"trial","mean",0.89185,0.84397,0.92435,107,34757,324.831775700935,1,0.676732866043614,"Stroop_2","internal_consistency"
"390",0.9,0,3000,1,"trial","mean",0.89249,0.85175,0.92483,107,34757,324.831775700935,1,0.676732866043614,"Stroop_2","internal_consistency"
"391",0,100,3000,1,"trial","mean",0.88868,0.84826,0.92157,107,34674,324.056074766355,1,0.675116822429907,"Stroop_2","internal_consistency"
"392",0.8,100,3000,1,"trial","mean",0.88881,0.84672,0.92296,107,34674,324.056074766355,1,0.675116822429907,"Stroop_2","internal_consistency"
"393",0.9,100,3000,1,"trial","mean",0.8883,0.84336,0.92074,107,34674,324.056074766355,1,0.675116822429907,"Stroop_2","internal_consistency"
"394",0,200,3000,1,"trial","mean",0.88673,0.84114,0.92235,107,34590,323.271028037383,1,0.673481308411215,"Stroop_2","internal_consistency"
"395",0.8,200,3000,1,"trial","mean",0.88493,0.83229,0.92059,107,34590,323.271028037383,1,0.673481308411215,"Stroop_2","internal_consistency"
"396",0.9,200,3000,1,"trial","mean",0.88803,0.84174,0.92416,107,34590,323.271028037383,1,0.673481308411215,"Stroop_2","internal_consistency"
"397",0,0,2000,2,"trial","mean",0.79513,0.71894,0.85298,107,43846,409.775700934579,1,0.85369937694704,"Stroop_2","internal_consistency"
"398",0.8,0,2000,2,"trial","mean",0.79342,0.70566,0.8531,107,43846,409.775700934579,1,0.85369937694704,"Stroop_2","internal_consistency"
"399",0.9,0,2000,2,"trial","mean",0.79141,0.70925,0.85665,107,43846,409.775700934579,1,0.85369937694704,"Stroop_2","internal_consistency"
"400",0,100,2000,2,"trial","mean",0.77388,0.68799,0.84053,107,43723,408.626168224299,1,0.851304517133956,"Stroop_2","internal_consistency"
"401",0.8,100,2000,2,"trial","mean",0.77386,0.67854,0.84275,107,43723,408.626168224299,1,0.851304517133956,"Stroop_2","internal_consistency"
"402",0.9,100,2000,2,"trial","mean",0.77581,0.68297,0.84915,107,43723,408.626168224299,1,0.851304517133956,"Stroop_2","internal_consistency"
"403",0,200,2000,2,"trial","mean",0.76731,0.67188,0.84285,107,43648,407.92523364486,1,0.849844236760125,"Stroop_2","internal_consistency"
"404",0.8,200,2000,2,"trial","mean",0.76758,0.67505,0.83735,107,43648,407.92523364486,1,0.849844236760125,"Stroop_2","internal_consistency"
"405",0.9,200,2000,2,"trial","mean",0.77113,0.68732,0.83573,107,43648,407.92523364486,1,0.849844236760125,"Stroop_2","internal_consistency"
"406",0,0,3000,2,"trial","mean",0.79412,0.71188,0.85444,107,43969,410.92523364486,1,0.856094236760125,"Stroop_2","internal_consistency"
"407",0.8,0,3000,2,"trial","mean",0.7884,0.69884,0.8562,107,43969,410.92523364486,1,0.856094236760125,"Stroop_2","internal_consistency"
"408",0.9,0,3000,2,"trial","mean",0.79098,0.70237,0.85088,107,43969,410.92523364486,1,0.856094236760125,"Stroop_2","internal_consistency"
"409",0,100,3000,2,"trial","mean",0.77277,0.68901,0.83897,107,43854,409.85046728972,1,0.853855140186916,"Stroop_2","internal_consistency"
"410",0.8,100,3000,2,"trial","mean",0.7749,0.67771,0.84269,107,43854,409.85046728972,1,0.853855140186916,"Stroop_2","internal_consistency"
"411",0.9,100,3000,2,"trial","mean",0.77195,0.6747,0.83835,107,43854,409.85046728972,1,0.853855140186916,"Stroop_2","internal_consistency"
"412",0,200,3000,2,"trial","mean",0.76796,0.67544,0.83682,107,43773,409.093457943925,1,0.852278037383178,"Stroop_2","internal_consistency"
"413",0.8,200,3000,2,"trial","mean",0.76884,0.681,0.83589,107,43773,409.093457943925,1,0.852278037383178,"Stroop_2","internal_consistency"
"414",0.9,200,3000,2,"trial","mean",0.77141,0.6793,0.84083,107,43773,409.093457943925,1,0.852278037383178,"Stroop_2","internal_consistency"
"415",0,0,2000,3,"trial","mean",0.7493,0.65646,0.8236,107,45120,421.682242990654,1,0.878504672897196,"Stroop_2","internal_consistency"
"416",0.8,0,2000,3,"trial","mean",0.75132,0.66005,0.83114,107,45120,421.682242990654,1,0.878504672897196,"Stroop_2","internal_consistency"
"417",0.9,0,2000,3,"trial","mean",0.75447,0.67062,0.82768,107,45120,421.682242990654,1,0.878504672897196,"Stroop_2","internal_consistency"
"418",0,100,2000,3,"trial","mean",0.74582,0.6475,0.81964,107,44990,420.467289719626,1,0.875973520249221,"Stroop_2","internal_consistency"
"419",0.8,100,2000,3,"trial","mean",0.7479,0.65224,0.82449,107,44990,420.467289719626,1,0.875973520249221,"Stroop_2","internal_consistency"
"420",0.9,100,2000,3,"trial","mean",0.74621,0.65096,0.81639,107,44990,420.467289719626,1,0.875973520249221,"Stroop_2","internal_consistency"
"421",0,200,2000,3,"trial","mean",0.72864,0.61368,0.81147,107,44900,419.626168224299,1,0.874221183800623,"Stroop_2","internal_consistency"
"422",0.8,200,2000,3,"trial","mean",0.73194,0.6168,0.81621,107,44900,419.626168224299,1,0.874221183800623,"Stroop_2","internal_consistency"
"423",0.9,200,2000,3,"trial","mean",0.73302,0.61317,0.81273,107,44900,419.626168224299,1,0.874221183800623,"Stroop_2","internal_consistency"
"424",0,0,3000,3,"trial","mean",0.76503,0.65816,0.84009,107,45189,422.327102803738,1,0.879848130841121,"Stroop_2","internal_consistency"
"425",0.8,0,3000,3,"trial","mean",0.76069,0.65238,0.83683,107,45189,422.327102803738,1,0.879848130841121,"Stroop_2","internal_consistency"
"426",0.9,0,3000,3,"trial","mean",0.76562,0.67533,0.83797,107,45189,422.327102803738,1,0.879848130841121,"Stroop_2","internal_consistency"
"427",0,100,3000,3,"trial","mean",0.75703,0.6643,0.82968,107,45060,421.121495327103,1,0.877336448598131,"Stroop_2","internal_consistency"
"428",0.8,100,3000,3,"trial","mean",0.75925,0.65664,0.83184,107,45060,421.121495327103,1,0.877336448598131,"Stroop_2","internal_consistency"
"429",0.9,100,3000,3,"trial","mean",0.75753,0.65734,0.83221,107,45060,421.121495327103,1,0.877336448598131,"Stroop_2","internal_consistency"
"430",0,200,3000,3,"trial","mean",0.7381,0.614,0.81802,107,44973,420.308411214953,1,0.875642523364486,"Stroop_2","internal_consistency"
"431",0.8,200,3000,3,"trial","mean",0.73419,0.59999,0.81597,107,44973,420.308411214953,1,0.875642523364486,"Stroop_2","internal_consistency"
"432",0.9,200,3000,3,"trial","mean",0.73562,0.59923,0.82787,107,44973,420.308411214953,1,0.875642523364486,"Stroop_2","internal_consistency"
"433",0,0,2000,0,"subject","median",0.65843,0.50494,0.76971,107,45829,428.308411214953,1,0.892309190031153,"Stroop_2","internal_consistency"
"434",0.8,0,2000,0,"subject","median",0.6599,0.5122,0.76724,107,45829,428.308411214953,1,0.892309190031153,"Stroop_2","internal_consistency"
"435",0.9,0,2000,0,"subject","median",0.6597,0.50961,0.76366,107,45829,428.308411214953,1,0.892309190031153,"Stroop_2","internal_consistency"
"436",0,100,2000,0,"subject","median",0.63213,0.49249,0.74266,107,45701,427.11214953271,1,0.889816978193146,"Stroop_2","internal_consistency"
"437",0.8,100,2000,0,"subject","median",0.63661,0.51114,0.73729,107,45701,427.11214953271,1,0.889816978193146,"Stroop_2","internal_consistency"
"438",0.9,100,2000,0,"subject","median",0.63789,0.48204,0.73836,107,45701,427.11214953271,1,0.889816978193146,"Stroop_2","internal_consistency"
"439",0,200,2000,0,"subject","median",0.63611,0.49818,0.75554,107,45612,426.280373831776,1,0.888084112149533,"Stroop_2","internal_consistency"
"440",0.8,200,2000,0,"subject","median",0.63345,0.47433,0.74198,107,45612,426.280373831776,1,0.888084112149533,"Stroop_2","internal_consistency"
"441",0.9,200,2000,0,"subject","median",0.63515,0.49576,0.74105,107,45612,426.280373831776,1,0.888084112149533,"Stroop_2","internal_consistency"
"442",0,0,3000,0,"subject","median",0.66619,0.50634,0.76482,107,45915,429.11214953271,1,0.893983644859813,"Stroop_2","internal_consistency"
"443",0.8,0,3000,0,"subject","median",0.66562,0.50803,0.76904,107,45915,429.11214953271,1,0.893983644859813,"Stroop_2","internal_consistency"
"444",0.9,0,3000,0,"subject","median",0.67047,0.52863,0.77386,107,45915,429.11214953271,1,0.893983644859813,"Stroop_2","internal_consistency"
"445",0,100,3000,0,"subject","median",0.64719,0.51222,0.74551,107,45787,427.915887850467,1,0.891491433021807,"Stroop_2","internal_consistency"
"446",0.8,100,3000,0,"subject","median",0.64521,0.49218,0.75231,107,45787,427.915887850467,1,0.891491433021807,"Stroop_2","internal_consistency"
"447",0.9,100,3000,0,"subject","median",0.64987,0.52912,0.75086,107,45787,427.915887850467,1,0.891491433021807,"Stroop_2","internal_consistency"
"448",0,200,3000,0,"subject","median",0.63508,0.48462,0.75085,107,45698,427.084112149533,1,0.889758566978193,"Stroop_2","internal_consistency"
"449",0.8,200,3000,0,"subject","median",0.64682,0.50793,0.75521,107,45698,427.084112149533,1,0.889758566978193,"Stroop_2","internal_consistency"
"450",0.9,200,3000,0,"subject","median",0.6409,0.48442,0.74798,107,45698,427.084112149533,1,0.889758566978193,"Stroop_2","internal_consistency"
"451",0,0,2000,1,"subject","median",0.60876,0.44792,0.73943,107,34289,320.457943925234,1,0.667620716510903,"Stroop_2","internal_consistency"
"452",0.8,0,2000,1,"subject","median",0.60886,0.45217,0.7264,107,34289,320.457943925234,1,0.667620716510903,"Stroop_2","internal_consistency"
"453",0.9,0,2000,1,"subject","median",0.60616,0.41787,0.73077,107,34289,320.457943925234,1,0.667620716510903,"Stroop_2","internal_consistency"
"454",0,100,2000,1,"subject","median",0.58291,0.43433,0.70838,107,34207,319.691588785047,1,0.666024143302181,"Stroop_2","internal_consistency"
"455",0.8,100,2000,1,"subject","median",0.58664,0.43688,0.71294,107,34207,319.691588785047,1,0.666024143302181,"Stroop_2","internal_consistency"
"456",0.9,100,2000,1,"subject","median",0.58099,0.42579,0.71171,107,34207,319.691588785047,1,0.666024143302181,"Stroop_2","internal_consistency"
"457",0,200,2000,1,"subject","median",0.60189,0.45481,0.71837,107,34108,318.766355140187,1,0.664096573208723,"Stroop_2","internal_consistency"
"458",0.8,200,2000,1,"subject","median",0.59615,0.44957,0.7168,107,34108,318.766355140187,1,0.664096573208723,"Stroop_2","internal_consistency"
"459",0.9,200,2000,1,"subject","median",0.60494,0.44967,0.71377,107,34108,318.766355140187,1,0.664096573208723,"Stroop_2","internal_consistency"
"460",0,0,3000,1,"subject","median",0.63041,0.47737,0.74709,107,34920,326.355140186916,1,0.679906542056075,"Stroop_2","internal_consistency"
"461",0.8,0,3000,1,"subject","median",0.63079,0.48003,0.74883,107,34920,326.355140186916,1,0.679906542056075,"Stroop_2","internal_consistency"
"462",0.9,0,3000,1,"subject","median",0.6315,0.47754,0.74571,107,34920,326.355140186916,1,0.679906542056075,"Stroop_2","internal_consistency"
"463",0,100,3000,1,"subject","median",0.60698,0.43688,0.72252,107,34878,325.96261682243,1,0.679088785046729,"Stroop_2","internal_consistency"
"464",0.8,100,3000,1,"subject","median",0.60738,0.47,0.7247,107,34878,325.96261682243,1,0.679088785046729,"Stroop_2","internal_consistency"
"465",0.9,100,3000,1,"subject","median",0.59987,0.43011,0.71837,107,34878,325.96261682243,1,0.679088785046729,"Stroop_2","internal_consistency"
"466",0,200,3000,1,"subject","median",0.61575,0.46248,0.72762,107,34801,325.242990654206,1,0.677589563862928,"Stroop_2","internal_consistency"
"467",0.8,200,3000,1,"subject","median",0.61653,0.46639,0.72754,107,34801,325.242990654206,1,0.677589563862928,"Stroop_2","internal_consistency"
"468",0.9,200,3000,1,"subject","median",0.61099,0.48135,0.71763,107,34801,325.242990654206,1,0.677589563862928,"Stroop_2","internal_consistency"
"469",0,0,2000,2,"subject","median",0.66076,0.50248,0.76179,107,43788,409.233644859813,1,0.852570093457944,"Stroop_2","internal_consistency"
"470",0.8,0,2000,2,"subject","median",0.65358,0.49698,0.76502,107,43788,409.233644859813,1,0.852570093457944,"Stroop_2","internal_consistency"
"471",0.9,0,2000,2,"subject","median",0.65825,0.51045,0.76758,107,43788,409.233644859813,1,0.852570093457944,"Stroop_2","internal_consistency"
"472",0,100,2000,2,"subject","median",0.61897,0.48418,0.73882,107,43667,408.102803738318,1,0.850214174454829,"Stroop_2","internal_consistency"
"473",0.8,100,2000,2,"subject","median",0.6176,0.45749,0.73377,107,43667,408.102803738318,1,0.850214174454829,"Stroop_2","internal_consistency"
"474",0.9,100,2000,2,"subject","median",0.61806,0.47732,0.72945,107,43667,408.102803738318,1,0.850214174454829,"Stroop_2","internal_consistency"
"475",0,200,2000,2,"subject","median",0.62397,0.4732,0.74289,107,43595,407.429906542056,1,0.84881230529595,"Stroop_2","internal_consistency"
"476",0.8,200,2000,2,"subject","median",0.62398,0.46764,0.73396,107,43595,407.429906542056,1,0.84881230529595,"Stroop_2","internal_consistency"
"477",0.9,200,2000,2,"subject","median",0.62568,0.48917,0.73732,107,43595,407.429906542056,1,0.84881230529595,"Stroop_2","internal_consistency"
"478",0,0,3000,2,"subject","median",0.66324,0.51041,0.76729,107,43954,410.785046728972,1,0.855802180685358,"Stroop_2","internal_consistency"
"479",0.8,0,3000,2,"subject","median",0.66188,0.52238,0.76602,107,43954,410.785046728972,1,0.855802180685358,"Stroop_2","internal_consistency"
"480",0.9,0,3000,2,"subject","median",0.66209,0.49937,0.7685,107,43954,410.785046728972,1,0.855802180685358,"Stroop_2","internal_consistency"
"481",0,100,3000,2,"subject","median",0.62814,0.48606,0.74259,107,43830,409.626168224299,1,0.85338785046729,"Stroop_2","internal_consistency"
"482",0.8,100,3000,2,"subject","median",0.6272,0.49446,0.73856,107,43830,409.626168224299,1,0.85338785046729,"Stroop_2","internal_consistency"
"483",0.9,100,3000,2,"subject","median",0.62103,0.48665,0.72992,107,43830,409.626168224299,1,0.85338785046729,"Stroop_2","internal_consistency"
"484",0,200,3000,2,"subject","median",0.63087,0.48408,0.74082,107,43753,408.906542056075,1,0.851888629283489,"Stroop_2","internal_consistency"
"485",0.8,200,3000,2,"subject","median",0.63572,0.47178,0.74291,107,43753,408.906542056075,1,0.851888629283489,"Stroop_2","internal_consistency"
"486",0.9,200,3000,2,"subject","median",0.63525,0.49874,0.74261,107,43753,408.906542056075,1,0.851888629283489,"Stroop_2","internal_consistency"
"487",0,0,2000,3,"subject","median",0.6659,0.51106,0.77363,107,45149,421.953271028037,1,0.879069314641745,"Stroop_2","internal_consistency"
"488",0.8,0,2000,3,"subject","median",0.66914,0.5088,0.77534,107,45149,421.953271028037,1,0.879069314641745,"Stroop_2","internal_consistency"
"489",0.9,0,2000,3,"subject","median",0.66918,0.52603,0.77337,107,45149,421.953271028037,1,0.879069314641745,"Stroop_2","internal_consistency"
"490",0,100,2000,3,"subject","median",0.63948,0.50748,0.73579,107,45016,420.710280373832,1,0.876479750778816,"Stroop_2","internal_consistency"
"491",0.8,100,2000,3,"subject","median",0.63603,0.48937,0.75323,107,45016,420.710280373832,1,0.876479750778816,"Stroop_2","internal_consistency"
"492",0.9,100,2000,3,"subject","median",0.63914,0.51071,0.74918,107,45016,420.710280373832,1,0.876479750778816,"Stroop_2","internal_consistency"
"493",0,200,2000,3,"subject","median",0.6468,0.48776,0.76153,107,44925,419.859813084112,1,0.874707943925234,"Stroop_2","internal_consistency"
"494",0.8,200,2000,3,"subject","median",0.64701,0.5196,0.75481,107,44925,419.859813084112,1,0.874707943925234,"Stroop_2","internal_consistency"
"495",0.9,200,2000,3,"subject","median",0.64841,0.52555,0.75393,107,44925,419.859813084112,1,0.874707943925234,"Stroop_2","internal_consistency"
"496",0,0,3000,3,"subject","median",0.66437,0.51842,0.76604,107,45220,422.616822429907,1,0.880451713395639,"Stroop_2","internal_consistency"
"497",0.8,0,3000,3,"subject","median",0.66652,0.51661,0.7818,107,45220,422.616822429907,1,0.880451713395639,"Stroop_2","internal_consistency"
"498",0.9,0,3000,3,"subject","median",0.66329,0.50345,0.77362,107,45220,422.616822429907,1,0.880451713395639,"Stroop_2","internal_consistency"
"499",0,100,3000,3,"subject","median",0.64143,0.51038,0.74489,107,45092,421.420560747664,1,0.877959501557632,"Stroop_2","internal_consistency"
"500",0.8,100,3000,3,"subject","median",0.64017,0.48764,0.74954,107,45092,421.420560747664,1,0.877959501557632,"Stroop_2","internal_consistency"
"501",0.9,100,3000,3,"subject","median",0.63972,0.48847,0.75086,107,45092,421.420560747664,1,0.877959501557632,"Stroop_2","internal_consistency"
"502",0,200,3000,3,"subject","median",0.64443,0.49604,0.75589,107,45003,420.588785046729,1,0.876226635514019,"Stroop_2","internal_consistency"
"503",0.8,200,3000,3,"subject","median",0.64708,0.49819,0.7596,107,45003,420.588785046729,1,0.876226635514019,"Stroop_2","internal_consistency"
"504",0.9,200,3000,3,"subject","median",0.64396,0.4959,0.76719,107,45003,420.588785046729,1,0.876226635514019,"Stroop_2","internal_consistency"
"505",0,0,2000,0,"trial","median",0.66086,0.51333,0.77693,107,45829,428.308411214953,1,0.892309190031153,"Stroop_2","internal_consistency"
"506",0.8,0,2000,0,"trial","median",0.66307,0.50338,0.76648,107,45829,428.308411214953,1,0.892309190031153,"Stroop_2","internal_consistency"
"507",0.9,0,2000,0,"trial","median",0.6557,0.48806,0.76589,107,45829,428.308411214953,1,0.892309190031153,"Stroop_2","internal_consistency"
"508",0,100,2000,0,"trial","median",0.63828,0.50013,0.74273,107,45701,427.11214953271,1,0.889816978193146,"Stroop_2","internal_consistency"
"509",0.8,100,2000,0,"trial","median",0.63486,0.5119,0.74287,107,45701,427.11214953271,1,0.889816978193146,"Stroop_2","internal_consistency"
"510",0.9,100,2000,0,"trial","median",0.63299,0.50812,0.74837,107,45701,427.11214953271,1,0.889816978193146,"Stroop_2","internal_consistency"
"511",0,200,2000,0,"trial","median",0.63445,0.48616,0.74295,107,45612,426.280373831776,1,0.888084112149533,"Stroop_2","internal_consistency"
"512",0.8,200,2000,0,"trial","median",0.6337,0.50121,0.74703,107,45612,426.280373831776,1,0.888084112149533,"Stroop_2","internal_consistency"
"513",0.9,200,2000,0,"trial","median",0.63216,0.48958,0.74716,107,45612,426.280373831776,1,0.888084112149533,"Stroop_2","internal_consistency"
"514",0,0,3000,0,"trial","median",0.66922,0.50617,0.77208,107,45915,429.11214953271,1,0.893983644859813,"Stroop_2","internal_consistency"
"515",0.8,0,3000,0,"trial","median",0.66694,0.50439,0.76765,107,45915,429.11214953271,1,0.893983644859813,"Stroop_2","internal_consistency"
"516",0.9,0,3000,0,"trial","median",0.66792,0.52555,0.7763,107,45915,429.11214953271,1,0.893983644859813,"Stroop_2","internal_consistency"
"517",0,100,3000,0,"trial","median",0.65095,0.53312,0.75681,107,45787,427.915887850467,1,0.891491433021807,"Stroop_2","internal_consistency"
"518",0.8,100,3000,0,"trial","median",0.65142,0.49957,0.75444,107,45787,427.915887850467,1,0.891491433021807,"Stroop_2","internal_consistency"
"519",0.9,100,3000,0,"trial","median",0.65491,0.51879,0.75937,107,45787,427.915887850467,1,0.891491433021807,"Stroop_2","internal_consistency"
"520",0,200,3000,0,"trial","median",0.64208,0.52277,0.74632,107,45698,427.084112149533,1,0.889758566978193,"Stroop_2","internal_consistency"
"521",0.8,200,3000,0,"trial","median",0.63954,0.50274,0.74336,107,45698,427.084112149533,1,0.889758566978193,"Stroop_2","internal_consistency"
"522",0.9,200,3000,0,"trial","median",0.64573,0.50058,0.75308,107,45698,427.084112149533,1,0.889758566978193,"Stroop_2","internal_consistency"
"523",0,0,2000,1,"trial","median",0.80085,0.71298,0.86082,107,34164,319.289719626168,1,0.665186915887851,"Stroop_2","internal_consistency"
"524",0.8,0,2000,1,"trial","median",0.80016,0.72213,0.86276,107,34164,319.289719626168,1,0.665186915887851,"Stroop_2","internal_consistency"
"525",0.9,0,2000,1,"trial","median",0.80068,0.71189,0.85888,107,34164,319.289719626168,1,0.665186915887851,"Stroop_2","internal_consistency"
"526",0,100,2000,1,"trial","median",0.78555,0.70452,0.84972,107,34072,318.429906542056,1,0.663395638629284,"Stroop_2","internal_consistency"
"527",0.8,100,2000,1,"trial","median",0.78917,0.71153,0.84757,107,34072,318.429906542056,1,0.663395638629284,"Stroop_2","internal_consistency"
"528",0.9,100,2000,1,"trial","median",0.78503,0.7087,0.84253,107,34072,318.429906542056,1,0.663395638629284,"Stroop_2","internal_consistency"
"529",0,200,2000,1,"trial","median",0.79537,0.71577,0.85186,107,33967,317.448598130841,1,0.661351246105919,"Stroop_2","internal_consistency"
"530",0.8,200,2000,1,"trial","median",0.79684,0.72212,0.85417,107,33967,317.448598130841,1,0.661351246105919,"Stroop_2","internal_consistency"
"531",0.9,200,2000,1,"trial","median",0.79534,0.72321,0.85596,107,33967,317.448598130841,1,0.661351246105919,"Stroop_2","internal_consistency"
"532",0,0,3000,1,"trial","median",0.78819,0.69201,0.85113,107,34757,324.831775700935,1,0.676732866043614,"Stroop_2","internal_consistency"
"533",0.8,0,3000,1,"trial","median",0.79326,0.70833,0.85763,107,34757,324.831775700935,1,0.676732866043614,"Stroop_2","internal_consistency"
"534",0.9,0,3000,1,"trial","median",0.79122,0.70076,0.85143,107,34757,324.831775700935,1,0.676732866043614,"Stroop_2","internal_consistency"
"535",0,100,3000,1,"trial","median",0.77752,0.69765,0.84043,107,34674,324.056074766355,1,0.675116822429907,"Stroop_2","internal_consistency"
"536",0.8,100,3000,1,"trial","median",0.77799,0.69047,0.83766,107,34674,324.056074766355,1,0.675116822429907,"Stroop_2","internal_consistency"
"537",0.9,100,3000,1,"trial","median",0.77973,0.7024,0.84382,107,34674,324.056074766355,1,0.675116822429907,"Stroop_2","internal_consistency"
"538",0,200,3000,1,"trial","median",0.7836,0.7043,0.84408,107,34590,323.271028037383,1,0.673481308411215,"Stroop_2","internal_consistency"
"539",0.8,200,3000,1,"trial","median",0.78574,0.70933,0.84487,107,34590,323.271028037383,1,0.673481308411215,"Stroop_2","internal_consistency"
"540",0.9,200,3000,1,"trial","median",0.78895,0.7132,0.85062,107,34590,323.271028037383,1,0.673481308411215,"Stroop_2","internal_consistency"
"541",0,0,2000,2,"trial","median",0.68827,0.55296,0.78442,107,43846,409.775700934579,1,0.85369937694704,"Stroop_2","internal_consistency"
"542",0.8,0,2000,2,"trial","median",0.68008,0.532,0.77827,107,43846,409.775700934579,1,0.85369937694704,"Stroop_2","internal_consistency"
"543",0.9,0,2000,2,"trial","median",0.68497,0.54078,0.7888,107,43846,409.775700934579,1,0.85369937694704,"Stroop_2","internal_consistency"
"544",0,100,2000,2,"trial","median",0.65735,0.53787,0.75306,107,43723,408.626168224299,1,0.851304517133956,"Stroop_2","internal_consistency"
"545",0.8,100,2000,2,"trial","median",0.65781,0.53007,0.7636,107,43723,408.626168224299,1,0.851304517133956,"Stroop_2","internal_consistency"
"546",0.9,100,2000,2,"trial","median",0.64725,0.51108,0.75592,107,43723,408.626168224299,1,0.851304517133956,"Stroop_2","internal_consistency"
"547",0,200,2000,2,"trial","median",0.66704,0.55388,0.76551,107,43648,407.92523364486,1,0.849844236760125,"Stroop_2","internal_consistency"
"548",0.8,200,2000,2,"trial","median",0.66137,0.53135,0.75745,107,43648,407.92523364486,1,0.849844236760125,"Stroop_2","internal_consistency"
"549",0.9,200,2000,2,"trial","median",0.66231,0.541,0.75948,107,43648,407.92523364486,1,0.849844236760125,"Stroop_2","internal_consistency"
"550",0,0,3000,2,"trial","median",0.69043,0.55569,0.78992,107,43969,410.92523364486,1,0.856094236760125,"Stroop_2","internal_consistency"
"551",0.8,0,3000,2,"trial","median",0.68989,0.54072,0.7889,107,43969,410.92523364486,1,0.856094236760125,"Stroop_2","internal_consistency"
"552",0.9,0,3000,2,"trial","median",0.68628,0.56148,0.78675,107,43969,410.92523364486,1,0.856094236760125,"Stroop_2","internal_consistency"
"553",0,100,3000,2,"trial","median",0.66295,0.55031,0.75626,107,43854,409.85046728972,1,0.853855140186916,"Stroop_2","internal_consistency"
"554",0.8,100,3000,2,"trial","median",0.66339,0.53995,0.75778,107,43854,409.85046728972,1,0.853855140186916,"Stroop_2","internal_consistency"
"555",0.9,100,3000,2,"trial","median",0.65974,0.53096,0.75965,107,43854,409.85046728972,1,0.853855140186916,"Stroop_2","internal_consistency"
"556",0,200,3000,2,"trial","median",0.66319,0.53725,0.76135,107,43773,409.093457943925,1,0.852278037383178,"Stroop_2","internal_consistency"
"557",0.8,200,3000,2,"trial","median",0.66177,0.52731,0.756,107,43773,409.093457943925,1,0.852278037383178,"Stroop_2","internal_consistency"
"558",0.9,200,3000,2,"trial","median",0.66346,0.55735,0.76306,107,43773,409.093457943925,1,0.852278037383178,"Stroop_2","internal_consistency"
"559",0,0,2000,3,"trial","median",0.67229,0.52783,0.76823,107,45120,421.682242990654,1,0.878504672897196,"Stroop_2","internal_consistency"
"560",0.8,0,2000,3,"trial","median",0.67271,0.53632,0.77264,107,45120,421.682242990654,1,0.878504672897196,"Stroop_2","internal_consistency"
"561",0.9,0,2000,3,"trial","median",0.67196,0.54079,0.7684,107,45120,421.682242990654,1,0.878504672897196,"Stroop_2","internal_consistency"
"562",0,100,2000,3,"trial","median",0.64313,0.50584,0.74254,107,44990,420.467289719626,1,0.875973520249221,"Stroop_2","internal_consistency"
"563",0.8,100,2000,3,"trial","median",0.65052,0.51295,0.75115,107,44990,420.467289719626,1,0.875973520249221,"Stroop_2","internal_consistency"
"564",0.9,100,2000,3,"trial","median",0.64736,0.52653,0.74521,107,44990,420.467289719626,1,0.875973520249221,"Stroop_2","internal_consistency"
"565",0,200,2000,3,"trial","median",0.64155,0.50953,0.74455,107,44900,419.626168224299,1,0.874221183800623,"Stroop_2","internal_consistency"
"566",0.8,200,2000,3,"trial","median",0.64001,0.49978,0.75326,107,44900,419.626168224299,1,0.874221183800623,"Stroop_2","internal_consistency"
"567",0.9,200,2000,3,"trial","median",0.64656,0.53273,0.75514,107,44900,419.626168224299,1,0.874221183800623,"Stroop_2","internal_consistency"
"568",0,0,3000,3,"trial","median",0.67506,0.52266,0.77224,107,45189,422.327102803738,1,0.879848130841121,"Stroop_2","internal_consistency"
"569",0.8,0,3000,3,"trial","median",0.67697,0.55487,0.77249,107,45189,422.327102803738,1,0.879848130841121,"Stroop_2","internal_consistency"
"570",0.9,0,3000,3,"trial","median",0.67362,0.53025,0.77489,107,45189,422.327102803738,1,0.879848130841121,"Stroop_2","internal_consistency"
"571",0,100,3000,3,"trial","median",0.65355,0.53758,0.74645,107,45060,421.121495327103,1,0.877336448598131,"Stroop_2","internal_consistency"
"572",0.8,100,3000,3,"trial","median",0.65258,0.51374,0.75243,107,45060,421.121495327103,1,0.877336448598131,"Stroop_2","internal_consistency"
"573",0.9,100,3000,3,"trial","median",0.65626,0.53897,0.76002,107,45060,421.121495327103,1,0.877336448598131,"Stroop_2","internal_consistency"
"574",0,200,3000,3,"trial","median",0.64737,0.50296,0.75603,107,44973,420.308411214953,1,0.875642523364486,"Stroop_2","internal_consistency"
"575",0.8,200,3000,3,"trial","median",0.64388,0.50975,0.75235,107,44973,420.308411214953,1,0.875642523364486,"Stroop_2","internal_consistency"
"576",0.9,200,3000,3,"trial","median",0.6458,0.50435,0.75496,107,44973,420.308411214953,1,0.875642523364486,"Stroop_2","internal_consistency"
"577",0,0,2000,0,"subject","mean",0.72942,0.61971,0.80649,107,46135,431.168224299065,1,0.898267133956386,"Flanker_1","internal_consistency"
"578",0.8,0,2000,0,"subject","mean",0.7317,0.63402,0.81967,107,46135,431.168224299065,1,0.898267133956386,"Flanker_1","internal_consistency"
"579",0.9,0,2000,0,"subject","mean",0.73349,0.63046,0.8091,107,46135,431.168224299065,1,0.898267133956386,"Flanker_1","internal_consistency"
"580",0,100,2000,0,"subject","mean",0.7118,0.5708,0.80714,107,45876,428.747663551402,1,0.893224299065421,"Flanker_1","internal_consistency"
"581",0.8,100,2000,0,"subject","mean",0.71594,0.60264,0.80303,107,45876,428.747663551402,1,0.893224299065421,"Flanker_1","internal_consistency"
"582",0.9,100,2000,0,"subject","mean",0.71773,0.59536,0.80425,107,45876,428.747663551402,1,0.893224299065421,"Flanker_1","internal_consistency"
"583",0,200,2000,0,"subject","mean",0.64486,0.34214,0.78141,107,45715,427.242990654206,1,0.890089563862928,"Flanker_1","internal_consistency"
"584",0.8,200,2000,0,"subject","mean",0.65828,0.39333,0.78583,107,45715,427.242990654206,1,0.890089563862928,"Flanker_1","internal_consistency"
"585",0.9,200,2000,0,"subject","mean",0.64738,0.34764,0.78138,107,45715,427.242990654206,1,0.890089563862928,"Flanker_1","internal_consistency"
"586",0,0,3000,0,"subject","mean",0.70277,0.57956,0.7945,107,46174,431.532710280374,1,0.899026479750779,"Flanker_1","internal_consistency"
"587",0.8,0,3000,0,"subject","mean",0.69867,0.57841,0.79306,107,46174,431.532710280374,1,0.899026479750779,"Flanker_1","internal_consistency"
"588",0.9,0,3000,0,"subject","mean",0.70473,0.59965,0.79743,107,46174,431.532710280374,1,0.899026479750779,"Flanker_1","internal_consistency"
"589",0,100,3000,0,"subject","mean",0.68438,0.55203,0.77751,107,45915,429.11214953271,1,0.893983644859813,"Flanker_1","internal_consistency"
"590",0.8,100,3000,0,"subject","mean",0.6876,0.55634,0.78167,107,45915,429.11214953271,1,0.893983644859813,"Flanker_1","internal_consistency"
"591",0.9,100,3000,0,"subject","mean",0.6901,0.55759,0.7886,107,45915,429.11214953271,1,0.893983644859813,"Flanker_1","internal_consistency"
"592",0,200,3000,0,"subject","mean",0.6242,0.36547,0.77846,107,45754,427.607476635514,1,0.890848909657321,"Flanker_1","internal_consistency"
"593",0.8,200,3000,0,"subject","mean",0.62724,0.35413,0.76616,107,45754,427.607476635514,1,0.890848909657321,"Flanker_1","internal_consistency"
"594",0.9,200,3000,0,"subject","mean",0.62788,0.36268,0.77054,107,45754,427.607476635514,1,0.890848909657321,"Flanker_1","internal_consistency"
"595",0,0,2000,1,"subject","mean",0.86763,0.82011,0.90924,107,38007,355.205607476636,1,0.740011682242991,"Flanker_1","internal_consistency"
"596",0.8,0,2000,1,"subject","mean",0.86573,0.81011,0.90577,107,38007,355.205607476636,1,0.740011682242991,"Flanker_1","internal_consistency"
"597",0.9,0,2000,1,"subject","mean",0.86686,0.81774,0.90615,107,38007,355.205607476636,1,0.740011682242991,"Flanker_1","internal_consistency"
"598",0,100,2000,1,"subject","mean",0.86423,0.81347,0.90115,107,37782,353.102803738318,1,0.735630841121495,"Flanker_1","internal_consistency"
"599",0.8,100,2000,1,"subject","mean",0.86488,0.81466,0.90441,107,37782,353.102803738318,1,0.735630841121495,"Flanker_1","internal_consistency"
"600",0.9,100,2000,1,"subject","mean",0.86455,0.8105,0.90587,107,37782,353.102803738318,1,0.735630841121495,"Flanker_1","internal_consistency"
"601",0,200,2000,1,"subject","mean",0.85122,0.73258,0.90409,107,37677,352.121495327103,1,0.733586448598131,"Flanker_1","internal_consistency"
"602",0.8,200,2000,1,"subject","mean",0.85634,0.7508,0.90774,107,37677,352.121495327103,1,0.733586448598131,"Flanker_1","internal_consistency"
"603",0.9,200,2000,1,"subject","mean",0.85463,0.74054,0.90358,107,37677,352.121495327103,1,0.733586448598131,"Flanker_1","internal_consistency"
"604",0,0,3000,1,"subject","mean",0.86019,0.80083,0.89967,107,38829,362.88785046729,1,0.756016355140187,"Flanker_1","internal_consistency"
"605",0.8,0,3000,1,"subject","mean",0.8629,0.80087,0.90491,107,38829,362.88785046729,1,0.756016355140187,"Flanker_1","internal_consistency"
"606",0.9,0,3000,1,"subject","mean",0.86187,0.80331,0.90274,107,38829,362.88785046729,1,0.756016355140187,"Flanker_1","internal_consistency"
"607",0,100,3000,1,"subject","mean",0.85782,0.80238,0.90338,107,38617,360.906542056075,1,0.751888629283489,"Flanker_1","internal_consistency"
"608",0.8,100,3000,1,"subject","mean",0.85516,0.80085,0.8998,107,38617,360.906542056075,1,0.751888629283489,"Flanker_1","internal_consistency"
"609",0.9,100,3000,1,"subject","mean",0.85874,0.79671,0.90214,107,38617,360.906542056075,1,0.751888629283489,"Flanker_1","internal_consistency"
"610",0,200,3000,1,"subject","mean",0.84914,0.75697,0.89947,107,38519,359.990654205607,1,0.749980529595016,"Flanker_1","internal_consistency"
"611",0.8,200,3000,1,"subject","mean",0.84793,0.74862,0.90152,107,38519,359.990654205607,1,0.749980529595016,"Flanker_1","internal_consistency"
"612",0.9,200,3000,1,"subject","mean",0.84887,0.73899,0.90548,107,38519,359.990654205607,1,0.749980529595016,"Flanker_1","internal_consistency"
"613",0,0,2000,2,"subject","mean",0.83559,0.77197,0.88574,107,44466,415.570093457944,1,0.865771028037383,"Flanker_1","internal_consistency"
"614",0.8,0,2000,2,"subject","mean",0.83542,0.77476,0.883,107,44466,415.570093457944,1,0.865771028037383,"Flanker_1","internal_consistency"
"615",0.9,0,2000,2,"subject","mean",0.83304,0.76889,0.88518,107,44466,415.570093457944,1,0.865771028037383,"Flanker_1","internal_consistency"
"616",0,100,2000,2,"subject","mean",0.82515,0.74808,0.87569,107,44220,413.271028037383,1,0.860981308411215,"Flanker_1","internal_consistency"
"617",0.8,100,2000,2,"subject","mean",0.82486,0.7555,0.87526,107,44220,413.271028037383,1,0.860981308411215,"Flanker_1","internal_consistency"
"618",0.9,100,2000,2,"subject","mean",0.82613,0.75399,0.88099,107,44220,413.271028037383,1,0.860981308411215,"Flanker_1","internal_consistency"
"619",0,200,2000,2,"subject","mean",0.80065,0.65286,0.87444,107,44097,412.121495327103,1,0.858586448598131,"Flanker_1","internal_consistency"
"620",0.8,200,2000,2,"subject","mean",0.80106,0.65791,0.8757,107,44097,412.121495327103,1,0.858586448598131,"Flanker_1","internal_consistency"
"621",0.9,200,2000,2,"subject","mean",0.80402,0.65553,0.87542,107,44097,412.121495327103,1,0.858586448598131,"Flanker_1","internal_consistency"
"622",0,0,3000,2,"subject","mean",0.82582,0.76393,0.87406,107,44645,417.242990654206,1,0.869256230529595,"Flanker_1","internal_consistency"
"623",0.8,0,3000,2,"subject","mean",0.82603,0.7575,0.87983,107,44645,417.242990654206,1,0.869256230529595,"Flanker_1","internal_consistency"
"624",0.9,0,3000,2,"subject","mean",0.82586,0.75928,0.87597,107,44645,417.242990654206,1,0.869256230529595,"Flanker_1","internal_consistency"
"625",0,100,3000,2,"subject","mean",0.81855,0.73922,0.87718,107,44402,414.971962616822,1,0.86452492211838,"Flanker_1","internal_consistency"
"626",0.8,100,3000,2,"subject","mean",0.82104,0.74705,0.87632,107,44402,414.971962616822,1,0.86452492211838,"Flanker_1","internal_consistency"
"627",0.9,100,3000,2,"subject","mean",0.81768,0.73558,0.87515,107,44402,414.971962616822,1,0.86452492211838,"Flanker_1","internal_consistency"
"628",0,200,3000,2,"subject","mean",0.80051,0.65327,0.8712,107,44259,413.635514018692,1,0.861740654205608,"Flanker_1","internal_consistency"
"629",0.8,200,3000,2,"subject","mean",0.79733,0.65845,0.871,107,44259,413.635514018692,1,0.861740654205608,"Flanker_1","internal_consistency"
"630",0.9,200,3000,2,"subject","mean",0.80362,0.68546,0.87234,107,44259,413.635514018692,1,0.861740654205608,"Flanker_1","internal_consistency"
"631",0,0,2000,3,"subject","mean",0.81091,0.74043,0.86382,107,45428,424.560747663551,1,0.884501557632399,"Flanker_1","internal_consistency"
"632",0.8,0,2000,3,"subject","mean",0.81124,0.7401,0.86687,107,45428,424.560747663551,1,0.884501557632399,"Flanker_1","internal_consistency"
"633",0.9,0,2000,3,"subject","mean",0.8072,0.73177,0.86473,107,45428,424.560747663551,1,0.884501557632399,"Flanker_1","internal_consistency"
"634",0,100,2000,3,"subject","mean",0.80208,0.71835,0.86465,107,45170,422.14953271028,1,0.879478193146417,"Flanker_1","internal_consistency"
"635",0.8,100,2000,3,"subject","mean",0.8028,0.71938,0.86384,107,45170,422.14953271028,1,0.879478193146417,"Flanker_1","internal_consistency"
"636",0.9,100,2000,3,"subject","mean",0.80205,0.72491,0.86586,107,45170,422.14953271028,1,0.879478193146417,"Flanker_1","internal_consistency"
"637",0,200,2000,3,"subject","mean",0.77002,0.64794,0.84556,107,45007,420.626168224299,1,0.876304517133956,"Flanker_1","internal_consistency"
"638",0.8,200,2000,3,"subject","mean",0.77062,0.6045,0.85616,107,45007,420.626168224299,1,0.876304517133956,"Flanker_1","internal_consistency"
"639",0.9,200,2000,3,"subject","mean",0.77374,0.63144,0.85612,107,45007,420.626168224299,1,0.876304517133956,"Flanker_1","internal_consistency"
"640",0,0,3000,3,"subject","mean",0.80771,0.73528,0.86674,107,45520,425.420560747664,1,0.886292834890966,"Flanker_1","internal_consistency"
"641",0.8,0,3000,3,"subject","mean",0.80943,0.73048,0.86229,107,45520,425.420560747664,1,0.886292834890966,"Flanker_1","internal_consistency"
"642",0.9,0,3000,3,"subject","mean",0.80669,0.73051,0.86369,107,45520,425.420560747664,1,0.886292834890966,"Flanker_1","internal_consistency"
"643",0,100,3000,3,"subject","mean",0.79909,0.70651,0.86273,107,45263,423.018691588785,1,0.881288940809969,"Flanker_1","internal_consistency"
"644",0.8,100,3000,3,"subject","mean",0.79571,0.71132,0.86087,107,45263,423.018691588785,1,0.881288940809969,"Flanker_1","internal_consistency"
"645",0.9,100,3000,3,"subject","mean",0.80276,0.71868,0.86093,107,45263,423.018691588785,1,0.881288940809969,"Flanker_1","internal_consistency"
"646",0,200,3000,3,"subject","mean",0.77088,0.62659,0.85054,107,45102,421.514018691589,1,0.878154205607477,"Flanker_1","internal_consistency"
"647",0.8,200,3000,3,"subject","mean",0.77294,0.63053,0.85163,107,45102,421.514018691589,1,0.878154205607477,"Flanker_1","internal_consistency"
"648",0.9,200,3000,3,"subject","mean",0.76772,0.59382,0.85309,107,45102,421.514018691589,1,0.878154205607477,"Flanker_1","internal_consistency"
"649",0,0,2000,0,"trial","mean",0.72908,0.62332,0.81796,107,46135,431.168224299065,1,0.898267133956386,"Flanker_1","internal_consistency"
"650",0.8,0,2000,0,"trial","mean",0.72969,0.62692,0.81007,107,46135,431.168224299065,1,0.898267133956386,"Flanker_1","internal_consistency"
"651",0.9,0,2000,0,"trial","mean",0.73179,0.62488,0.81042,107,46135,431.168224299065,1,0.898267133956386,"Flanker_1","internal_consistency"
"652",0,100,2000,0,"trial","mean",0.71787,0.59087,0.8068,107,45876,428.747663551402,1,0.893224299065421,"Flanker_1","internal_consistency"
"653",0.8,100,2000,0,"trial","mean",0.71257,0.58921,0.79959,107,45876,428.747663551402,1,0.893224299065421,"Flanker_1","internal_consistency"
"654",0.9,100,2000,0,"trial","mean",0.72117,0.60394,0.80617,107,45876,428.747663551402,1,0.893224299065421,"Flanker_1","internal_consistency"
"655",0,200,2000,0,"trial","mean",0.65422,0.39938,0.78429,107,45715,427.242990654206,1,0.890089563862928,"Flanker_1","internal_consistency"
"656",0.8,200,2000,0,"trial","mean",0.65052,0.34984,0.79178,107,45715,427.242990654206,1,0.890089563862928,"Flanker_1","internal_consistency"
"657",0.9,200,2000,0,"trial","mean",0.65,0.34688,0.78847,107,45715,427.242990654206,1,0.890089563862928,"Flanker_1","internal_consistency"
"658",0,0,3000,0,"trial","mean",0.6995,0.57355,0.79308,107,46174,431.532710280374,1,0.899026479750779,"Flanker_1","internal_consistency"
"659",0.8,0,3000,0,"trial","mean",0.69923,0.57977,0.78953,107,46174,431.532710280374,1,0.899026479750779,"Flanker_1","internal_consistency"
"660",0.9,0,3000,0,"trial","mean",0.70497,0.5859,0.78978,107,46174,431.532710280374,1,0.899026479750779,"Flanker_1","internal_consistency"
"661",0,100,3000,0,"trial","mean",0.68725,0.54759,0.78905,107,45915,429.11214953271,1,0.893983644859813,"Flanker_1","internal_consistency"
"662",0.8,100,3000,0,"trial","mean",0.68792,0.54813,0.78246,107,45915,429.11214953271,1,0.893983644859813,"Flanker_1","internal_consistency"
"663",0.9,100,3000,0,"trial","mean",0.68377,0.55203,0.78942,107,45915,429.11214953271,1,0.893983644859813,"Flanker_1","internal_consistency"
"664",0,200,3000,0,"trial","mean",0.63168,0.34453,0.77077,107,45754,427.607476635514,1,0.890848909657321,"Flanker_1","internal_consistency"
"665",0.8,200,3000,0,"trial","mean",0.63252,0.37625,0.77163,107,45754,427.607476635514,1,0.890848909657321,"Flanker_1","internal_consistency"
"666",0.9,200,3000,0,"trial","mean",0.63235,0.37554,0.76838,107,45754,427.607476635514,1,0.890848909657321,"Flanker_1","internal_consistency"
"667",0,0,2000,1,"trial","mean",0.92393,0.89227,0.94622,107,37761,352.906542056075,1,0.735221962616822,"Flanker_1","internal_consistency"
"668",0.8,0,2000,1,"trial","mean",0.92526,0.89469,0.94789,107,37761,352.906542056075,1,0.735221962616822,"Flanker_1","internal_consistency"
"669",0.9,0,2000,1,"trial","mean",0.92394,0.89938,0.947,107,37761,352.906542056075,1,0.735221962616822,"Flanker_1","internal_consistency"
"670",0,100,2000,1,"trial","mean",0.92712,0.89682,0.94782,107,37554,350.971962616822,1,0.731191588785047,"Flanker_1","internal_consistency"
"671",0.8,100,2000,1,"trial","mean",0.92747,0.899,0.94909,107,37554,350.971962616822,1,0.731191588785047,"Flanker_1","internal_consistency"
"672",0.9,100,2000,1,"trial","mean",0.92815,0.89853,0.94903,107,37554,350.971962616822,1,0.731191588785047,"Flanker_1","internal_consistency"
"673",0,200,2000,1,"trial","mean",0.92263,0.8716,0.94932,107,37416,349.682242990654,1,0.728504672897196,"Flanker_1","internal_consistency"
"674",0.8,200,2000,1,"trial","mean",0.9232,0.8757,0.94916,107,37416,349.682242990654,1,0.728504672897196,"Flanker_1","internal_consistency"
"675",0.9,200,2000,1,"trial","mean",0.92255,0.87274,0.94948,107,37416,349.682242990654,1,0.728504672897196,"Flanker_1","internal_consistency"
"676",0,0,3000,1,"trial","mean",0.9175,0.8822,0.94025,107,38406,358.934579439252,1,0.747780373831776,"Flanker_1","internal_consistency"
"677",0.8,0,3000,1,"trial","mean",0.91785,0.88106,0.94315,107,38406,358.934579439252,1,0.747780373831776,"Flanker_1","internal_consistency"
"678",0.9,0,3000,1,"trial","mean",0.91923,0.88738,0.94292,107,38406,358.934579439252,1,0.747780373831776,"Flanker_1","internal_consistency"
"679",0,100,3000,1,"trial","mean",0.92186,0.88899,0.94433,107,38202,357.028037383178,1,0.743808411214953,"Flanker_1","internal_consistency"
"680",0.8,100,3000,1,"trial","mean",0.92272,0.88789,0.94465,107,38202,357.028037383178,1,0.743808411214953,"Flanker_1","internal_consistency"
"681",0.9,100,3000,1,"trial","mean",0.92346,0.89718,0.94509,107,38202,357.028037383178,1,0.743808411214953,"Flanker_1","internal_consistency"
"682",0,200,3000,1,"trial","mean",0.91566,0.86676,0.94518,107,38070,355.794392523364,1,0.741238317757009,"Flanker_1","internal_consistency"
"683",0.8,200,3000,1,"trial","mean",0.91626,0.86763,0.94441,107,38070,355.794392523364,1,0.741238317757009,"Flanker_1","internal_consistency"
"684",0.9,200,3000,1,"trial","mean",0.91581,0.86542,0.94255,107,38070,355.794392523364,1,0.741238317757009,"Flanker_1","internal_consistency"
"685",0,0,2000,2,"trial","mean",0.86874,0.8266,0.906,107,44418,415.121495327103,1,0.864836448598131,"Flanker_1","internal_consistency"
"686",0.8,0,2000,2,"trial","mean",0.87059,0.81611,0.90758,107,44418,415.121495327103,1,0.864836448598131,"Flanker_1","internal_consistency"
"687",0.9,0,2000,2,"trial","mean",0.87035,0.81993,0.90607,107,44418,415.121495327103,1,0.864836448598131,"Flanker_1","internal_consistency"
"688",0,100,2000,2,"trial","mean",0.8632,0.81442,0.90492,107,44176,412.859813084112,1,0.8601246105919,"Flanker_1","internal_consistency"
"689",0.8,100,2000,2,"trial","mean",0.86499,0.81068,0.9068,107,44176,412.859813084112,1,0.8601246105919,"Flanker_1","internal_consistency"
"690",0.9,100,2000,2,"trial","mean",0.86303,0.80887,0.9054,107,44176,412.859813084112,1,0.8601246105919,"Flanker_1","internal_consistency"
"691",0,200,2000,2,"trial","mean",0.8466,0.73966,0.89804,107,44043,411.616822429907,1,0.857535046728972,"Flanker_1","internal_consistency"
"692",0.8,200,2000,2,"trial","mean",0.84159,0.72898,0.89536,107,44043,411.616822429907,1,0.857535046728972,"Flanker_1","internal_consistency"
"693",0.9,200,2000,2,"trial","mean",0.84613,0.75233,0.89713,107,44043,411.616822429907,1,0.857535046728972,"Flanker_1","internal_consistency"
"694",0,0,3000,2,"trial","mean",0.85844,0.8079,0.89971,107,44560,416.448598130841,1,0.867601246105919,"Flanker_1","internal_consistency"
"695",0.8,0,3000,2,"trial","mean",0.86006,0.80287,0.90261,107,44560,416.448598130841,1,0.867601246105919,"Flanker_1","internal_consistency"
"696",0.9,0,3000,2,"trial","mean",0.85927,0.80434,0.90232,107,44560,416.448598130841,1,0.867601246105919,"Flanker_1","internal_consistency"
"697",0,100,3000,2,"trial","mean",0.85174,0.78306,0.89896,107,44319,414.196261682243,1,0.862908878504673,"Flanker_1","internal_consistency"
"698",0.8,100,3000,2,"trial","mean",0.8513,0.78451,0.8967,107,44319,414.196261682243,1,0.862908878504673,"Flanker_1","internal_consistency"
"699",0.9,100,3000,2,"trial","mean",0.85047,0.78576,0.89674,107,44319,414.196261682243,1,0.862908878504673,"Flanker_1","internal_consistency"
"700",0,200,3000,2,"trial","mean",0.83191,0.71947,0.89348,107,44176,412.859813084112,1,0.8601246105919,"Flanker_1","internal_consistency"
"701",0.8,200,3000,2,"trial","mean",0.83262,0.72065,0.88604,107,44176,412.859813084112,1,0.8601246105919,"Flanker_1","internal_consistency"
"702",0.9,200,3000,2,"trial","mean",0.82929,0.72418,0.88699,107,44176,412.859813084112,1,0.8601246105919,"Flanker_1","internal_consistency"
"703",0,0,2000,3,"trial","mean",0.83906,0.77947,0.88488,107,45387,424.177570093458,1,0.883703271028037,"Flanker_1","internal_consistency"
"704",0.8,0,2000,3,"trial","mean",0.83779,0.76756,0.88985,107,45387,424.177570093458,1,0.883703271028037,"Flanker_1","internal_consistency"
"705",0.9,0,2000,3,"trial","mean",0.83836,0.78017,0.88879,107,45387,424.177570093458,1,0.883703271028037,"Flanker_1","internal_consistency"
"706",0,100,2000,3,"trial","mean",0.82952,0.76453,0.8812,107,45128,421.757009345794,1,0.878660436137072,"Flanker_1","internal_consistency"
"707",0.8,100,2000,3,"trial","mean",0.83098,0.75604,0.88093,107,45128,421.757009345794,1,0.878660436137072,"Flanker_1","internal_consistency"
"708",0.9,100,2000,3,"trial","mean",0.83065,0.76547,0.88077,107,45128,421.757009345794,1,0.878660436137072,"Flanker_1","internal_consistency"
