"","ACC_cutoff","RT_min","RT_max","RT_sd_cutoff","split_by","averaging_method","estimate","low","high","nPar","nTrial","nTrialperPar","pPar","pTrial","task","measure"
"1",0,0,2000,0,"subject","mean",0.72575,0.63475,0.79958,107,46974,439.009345794393,1,0.914602803738318,"Stroop_1","internal_consistency"
"2",0.8,0,2000,0,"subject","mean",0.7212,0.6171,0.79629,107,46974,439.009345794393,1,0.914602803738318,"Stroop_1","internal_consistency"
"3",0.9,0,2000,0,"subject","mean",0.72314,0.63395,0.79552,107,46974,439.009345794393,1,0.914602803738318,"Stroop_1","internal_consistency"
"4",0,100,2000,0,"subject","mean",0.72688,0.62948,0.80414,107,46925,438.551401869159,1,0.913648753894081,"Stroop_1","internal_consistency"
"5",0.8,100,2000,0,"subject","mean",0.72482,0.63094,0.8046,107,46925,438.551401869159,1,0.913648753894081,"Stroop_1","internal_consistency"
"6",0.9,100,2000,0,"subject","mean",0.72895,0.62314,0.79924,107,46925,438.551401869159,1,0.913648753894081,"Stroop_1","internal_consistency"
"7",0,200,2000,0,"subject","mean",0.71174,0.5954,0.79451,107,46891,438.233644859813,1,0.912986760124611,"Stroop_1","internal_consistency"
"8",0.8,200,2000,0,"subject","mean",0.71234,0.60564,0.80337,107,46891,438.233644859813,1,0.912986760124611,"Stroop_1","internal_consistency"
"9",0.9,200,2000,0,"subject","mean",0.71117,0.58751,0.79458,107,46891,438.233644859813,1,0.912986760124611,"Stroop_1","internal_consistency"
"10",0,0,3000,0,"subject","mean",0.72467,0.63162,0.79802,107,47120,440.373831775701,1,0.917445482866044,"Stroop_1","internal_consistency"
"11",0.8,0,3000,0,"subject","mean",0.72689,0.63913,0.8002,107,47120,440.373831775701,1,0.917445482866044,"Stroop_1","internal_consistency"
"12",0.9,0,3000,0,"subject","mean",0.72489,0.63828,0.79817,107,47120,440.373831775701,1,0.917445482866044,"Stroop_1","internal_consistency"
"13",0,100,3000,0,"subject","mean",0.73397,0.64598,0.80955,107,47071,439.915887850467,1,0.916491433021807,"Stroop_1","internal_consistency"
"14",0.8,100,3000,0,"subject","mean",0.72853,0.62716,0.80987,107,47071,439.915887850467,1,0.916491433021807,"Stroop_1","internal_consistency"
"15",0.9,100,3000,0,"subject","mean",0.73414,0.63622,0.80499,107,47071,439.915887850467,1,0.916491433021807,"Stroop_1","internal_consistency"
"16",0,200,3000,0,"subject","mean",0.72233,0.62469,0.80322,107,47037,439.598130841121,1,0.915829439252336,"Stroop_1","internal_consistency"
"17",0.8,200,3000,0,"subject","mean",0.71123,0.60017,0.78909,107,47037,439.598130841121,1,0.915829439252336,"Stroop_1","internal_consistency"
"18",0.9,200,3000,0,"subject","mean",0.71653,0.60827,0.80377,107,47037,439.598130841121,1,0.915829439252336,"Stroop_1","internal_consistency"
"19",0,0,2000,1,"subject","mean",0.68349,0.57356,0.77587,107,35186,328.841121495327,1,0.685085669781931,"Stroop_1","internal_consistency"
"20",0.8,0,2000,1,"subject","mean",0.68486,0.56824,0.77187,107,35186,328.841121495327,1,0.685085669781931,"Stroop_1","internal_consistency"
"21",0.9,0,2000,1,"subject","mean",0.67912,0.56671,0.77204,107,35186,328.841121495327,1,0.685085669781931,"Stroop_1","internal_consistency"
"22",0,100,2000,1,"subject","mean",0.71098,0.61838,0.7866,107,35135,328.364485981308,1,0.684092679127726,"Stroop_1","internal_consistency"
"23",0.8,100,2000,1,"subject","mean",0.70938,0.5958,0.79966,107,35135,328.364485981308,1,0.684092679127726,"Stroop_1","internal_consistency"
"24",0.9,100,2000,1,"subject","mean",0.71516,0.61929,0.8061,107,35135,328.364485981308,1,0.684092679127726,"Stroop_1","internal_consistency"
"25",0,200,2000,1,"subject","mean",0.72491,0.59377,0.80325,107,35103,328.065420560748,1,0.683469626168224,"Stroop_1","internal_consistency"
"26",0.8,200,2000,1,"subject","mean",0.72754,0.62337,0.81056,107,35103,328.065420560748,1,0.683469626168224,"Stroop_1","internal_consistency"
"27",0.9,200,2000,1,"subject","mean",0.7213,0.6037,0.80365,107,35103,328.065420560748,1,0.683469626168224,"Stroop_1","internal_consistency"
"28",0,0,3000,1,"subject","mean",0.74336,0.65883,0.8128,107,36190,338.224299065421,1,0.704633956386293,"Stroop_1","internal_consistency"
"29",0.8,0,3000,1,"subject","mean",0.74496,0.65351,0.81957,107,36190,338.224299065421,1,0.704633956386293,"Stroop_1","internal_consistency"
"30",0.9,0,3000,1,"subject","mean",0.74275,0.65232,0.81109,107,36190,338.224299065421,1,0.704633956386293,"Stroop_1","internal_consistency"
"31",0,100,3000,1,"subject","mean",0.76112,0.66612,0.83264,107,36147,337.822429906542,1,0.703796728971963,"Stroop_1","internal_consistency"
"32",0.8,100,3000,1,"subject","mean",0.76423,0.67479,0.83231,107,36147,337.822429906542,1,0.703796728971963,"Stroop_1","internal_consistency"
"33",0.9,100,3000,1,"subject","mean",0.76173,0.67153,0.83095,107,36147,337.822429906542,1,0.703796728971963,"Stroop_1","internal_consistency"
"34",0,200,3000,1,"subject","mean",0.7724,0.66933,0.83671,107,36116,337.532710280374,1,0.703193146417445,"Stroop_1","internal_consistency"
"35",0.8,200,3000,1,"subject","mean",0.7726,0.68214,0.8407,107,36116,337.532710280374,1,0.703193146417445,"Stroop_1","internal_consistency"
"36",0.9,200,3000,1,"subject","mean",0.77091,0.66994,0.83937,107,36116,337.532710280374,1,0.703193146417445,"Stroop_1","internal_consistency"
"37",0,0,2000,2,"subject","mean",0.7555,0.67019,0.82294,107,44853,419.18691588785,1,0.873306074766355,"Stroop_1","internal_consistency"
"38",0.8,0,2000,2,"subject","mean",0.7536,0.67313,0.81491,107,44853,419.18691588785,1,0.873306074766355,"Stroop_1","internal_consistency"
"39",0.9,0,2000,2,"subject","mean",0.75592,0.68186,0.81904,107,44853,419.18691588785,1,0.873306074766355,"Stroop_1","internal_consistency"
"40",0,100,2000,2,"subject","mean",0.76617,0.6743,0.8298,107,44811,418.794392523364,1,0.872488317757009,"Stroop_1","internal_consistency"
"41",0.8,100,2000,2,"subject","mean",0.76457,0.67663,0.83331,107,44811,418.794392523364,1,0.872488317757009,"Stroop_1","internal_consistency"
"42",0.9,100,2000,2,"subject","mean",0.76777,0.68851,0.8332,107,44811,418.794392523364,1,0.872488317757009,"Stroop_1","internal_consistency"
"43",0,200,2000,2,"subject","mean",0.76254,0.66496,0.82976,107,44779,418.495327102804,1,0.871865264797508,"Stroop_1","internal_consistency"
"44",0.8,200,2000,2,"subject","mean",0.76302,0.66997,0.8324,107,44779,418.495327102804,1,0.871865264797508,"Stroop_1","internal_consistency"
"45",0.9,200,2000,2,"subject","mean",0.7631,0.67357,0.83417,107,44779,418.495327102804,1,0.871865264797508,"Stroop_1","internal_consistency"
"46",0,0,3000,2,"subject","mean",0.76748,0.69126,0.83109,107,45101,421.504672897196,1,0.878134735202492,"Stroop_1","internal_consistency"
"47",0.8,0,3000,2,"subject","mean",0.76757,0.6921,0.83394,107,45101,421.504672897196,1,0.878134735202492,"Stroop_1","internal_consistency"
"48",0.9,0,3000,2,"subject","mean",0.76709,0.69513,0.83307,107,45101,421.504672897196,1,0.878134735202492,"Stroop_1","internal_consistency"
"49",0,100,3000,2,"subject","mean",0.77264,0.68698,0.84022,107,45058,421.102803738318,1,0.877297507788162,"Stroop_1","internal_consistency"
"50",0.8,100,3000,2,"subject","mean",0.77401,0.69772,0.83625,107,45058,421.102803738318,1,0.877297507788162,"Stroop_1","internal_consistency"
"51",0.9,100,3000,2,"subject","mean",0.77326,0.69036,0.841,107,45058,421.102803738318,1,0.877297507788162,"Stroop_1","internal_consistency"
"52",0,200,3000,2,"subject","mean",0.77608,0.68816,0.83975,107,45026,420.803738317757,1,0.87667445482866,"Stroop_1","internal_consistency"
"53",0.8,200,3000,2,"subject","mean",0.77217,0.6798,0.84376,107,45026,420.803738317757,1,0.87667445482866,"Stroop_1","internal_consistency"
"54",0.9,200,3000,2,"subject","mean",0.77012,0.68224,0.83519,107,45026,420.803738317757,1,0.87667445482866,"Stroop_1","internal_consistency"
"55",0,0,2000,3,"subject","mean",0.7527,0.66852,0.81848,107,46244,432.18691588785,1,0.900389408099688,"Stroop_1","internal_consistency"
"56",0.8,0,2000,3,"subject","mean",0.75014,0.66692,0.81607,107,46244,432.18691588785,1,0.900389408099688,"Stroop_1","internal_consistency"
"57",0.9,0,2000,3,"subject","mean",0.75339,0.67641,0.82129,107,46244,432.18691588785,1,0.900389408099688,"Stroop_1","internal_consistency"
"58",0,100,2000,3,"subject","mean",0.75773,0.67729,0.82173,107,46197,431.747663551402,1,0.899474299065421,"Stroop_1","internal_consistency"
"59",0.8,100,2000,3,"subject","mean",0.7555,0.68256,0.82196,107,46197,431.747663551402,1,0.899474299065421,"Stroop_1","internal_consistency"
"60",0.9,100,2000,3,"subject","mean",0.75407,0.66944,0.81798,107,46197,431.747663551402,1,0.899474299065421,"Stroop_1","internal_consistency"
"61",0,200,2000,3,"subject","mean",0.7383,0.62121,0.81774,107,46163,431.429906542056,1,0.89881230529595,"Stroop_1","internal_consistency"
"62",0.8,200,2000,3,"subject","mean",0.74482,0.6362,0.82039,107,46163,431.429906542056,1,0.89881230529595,"Stroop_1","internal_consistency"
"63",0.9,200,2000,3,"subject","mean",0.73826,0.6239,0.82458,107,46163,431.429906542056,1,0.89881230529595,"Stroop_1","internal_consistency"
"64",0,0,3000,3,"subject","mean",0.75693,0.6845,0.8243,107,46372,433.383177570093,1,0.902881619937695,"Stroop_1","internal_consistency"
"65",0.8,0,3000,3,"subject","mean",0.75556,0.66671,0.82044,107,46372,433.383177570093,1,0.902881619937695,"Stroop_1","internal_consistency"
"66",0.9,0,3000,3,"subject","mean",0.75665,0.67296,0.82256,107,46372,433.383177570093,1,0.902881619937695,"Stroop_1","internal_consistency"
"67",0,100,3000,3,"subject","mean",0.75784,0.67628,0.82977,107,46324,432.934579439252,1,0.901947040498442,"Stroop_1","internal_consistency"
"68",0.8,100,3000,3,"subject","mean",0.75918,0.66799,0.83532,107,46324,432.934579439252,1,0.901947040498442,"Stroop_1","internal_consistency"
"69",0.9,100,3000,3,"subject","mean",0.75674,0.66244,0.82574,107,46324,432.934579439252,1,0.901947040498442,"Stroop_1","internal_consistency"
"70",0,200,3000,3,"subject","mean",0.74523,0.64131,0.82505,107,46290,432.616822429907,1,0.901285046728972,"Stroop_1","internal_consistency"
"71",0.8,200,3000,3,"subject","mean",0.74976,0.65257,0.82646,107,46290,432.616822429907,1,0.901285046728972,"Stroop_1","internal_consistency"
"72",0.9,200,3000,3,"subject","mean",0.74772,0.63108,0.82211,107,46290,432.616822429907,1,0.901285046728972,"Stroop_1","internal_consistency"
"73",0,0,2000,0,"trial","mean",0.723,0.62548,0.8007,107,46974,439.009345794393,1,0.914602803738318,"Stroop_1","internal_consistency"
"74",0.8,0,2000,0,"trial","mean",0.72553,0.62058,0.80125,107,46974,439.009345794393,1,0.914602803738318,"Stroop_1","internal_consistency"
"75",0.9,0,2000,0,"trial","mean",0.72223,0.63281,0.80045,107,46974,439.009345794393,1,0.914602803738318,"Stroop_1","internal_consistency"
"76",0,100,2000,0,"trial","mean",0.72671,0.62698,0.80179,107,46925,438.551401869159,1,0.913648753894081,"Stroop_1","internal_consistency"
"77",0.8,100,2000,0,"trial","mean",0.7262,0.62908,0.79818,107,46925,438.551401869159,1,0.913648753894081,"Stroop_1","internal_consistency"
"78",0.9,100,2000,0,"trial","mean",0.72703,0.62242,0.80383,107,46925,438.551401869159,1,0.913648753894081,"Stroop_1","internal_consistency"
"79",0,200,2000,0,"trial","mean",0.70715,0.57036,0.79227,107,46891,438.233644859813,1,0.912986760124611,"Stroop_1","internal_consistency"
"80",0.8,200,2000,0,"trial","mean",0.71043,0.59654,0.79458,107,46891,438.233644859813,1,0.912986760124611,"Stroop_1","internal_consistency"
"81",0.9,200,2000,0,"trial","mean",0.71165,0.5898,0.79117,107,46891,438.233644859813,1,0.912986760124611,"Stroop_1","internal_consistency"
"82",0,0,3000,0,"trial","mean",0.72839,0.62477,0.80102,107,47120,440.373831775701,1,0.917445482866044,"Stroop_1","internal_consistency"
"83",0.8,0,3000,0,"trial","mean",0.7258,0.64401,0.8039,107,47120,440.373831775701,1,0.917445482866044,"Stroop_1","internal_consistency"
"84",0.9,0,3000,0,"trial","mean",0.72733,0.63464,0.80199,107,47120,440.373831775701,1,0.917445482866044,"Stroop_1","internal_consistency"
"85",0,100,3000,0,"trial","mean",0.73125,0.64743,0.80376,107,47071,439.915887850467,1,0.916491433021807,"Stroop_1","internal_consistency"
"86",0.8,100,3000,0,"trial","mean",0.73238,0.63636,0.80693,107,47071,439.915887850467,1,0.916491433021807,"Stroop_1","internal_consistency"
"87",0.9,100,3000,0,"trial","mean",0.73331,0.64375,0.81155,107,47071,439.915887850467,1,0.916491433021807,"Stroop_1","internal_consistency"
"88",0,200,3000,0,"trial","mean",0.71689,0.61306,0.79652,107,47037,439.598130841121,1,0.915829439252336,"Stroop_1","internal_consistency"
"89",0.8,200,3000,0,"trial","mean",0.71675,0.59879,0.79979,107,47037,439.598130841121,1,0.915829439252336,"Stroop_1","internal_consistency"
"90",0.9,200,3000,0,"trial","mean",0.7169,0.58428,0.79904,107,47037,439.598130841121,1,0.915829439252336,"Stroop_1","internal_consistency"
"91",0,0,2000,1,"trial","mean",0.91273,0.88468,0.93795,107,35055,327.616822429907,1,0.682535046728972,"Stroop_1","internal_consistency"
"92",0.8,0,2000,1,"trial","mean",0.91281,0.88309,0.93748,107,35055,327.616822429907,1,0.682535046728972,"Stroop_1","internal_consistency"
"93",0.9,0,2000,1,"trial","mean",0.91275,0.88462,0.93599,107,35055,327.616822429907,1,0.682535046728972,"Stroop_1","internal_consistency"
"94",0,100,2000,1,"trial","mean",0.92425,0.89646,0.94603,107,34998,327.084112149533,1,0.68142523364486,"Stroop_1","internal_consistency"
"95",0.8,100,2000,1,"trial","mean",0.92287,0.89236,0.94437,107,34998,327.084112149533,1,0.68142523364486,"Stroop_1","internal_consistency"
"96",0.9,100,2000,1,"trial","mean",0.92328,0.89679,0.94619,107,34998,327.084112149533,1,0.68142523364486,"Stroop_1","internal_consistency"
"97",0,200,2000,1,"trial","mean",0.91997,0.88739,0.94178,107,34973,326.85046728972,1,0.680938473520249,"Stroop_1","internal_consistency"
"98",0.8,200,2000,1,"trial","mean",0.91931,0.88532,0.94226,107,34973,326.85046728972,1,0.680938473520249,"Stroop_1","internal_consistency"
"99",0.9,200,2000,1,"trial","mean",0.9199,0.88893,0.94286,107,34973,326.85046728972,1,0.680938473520249,"Stroop_1","internal_consistency"
"100",0,0,3000,1,"trial","mean",0.91289,0.88535,0.93779,107,35917,335.672897196262,1,0.699318535825545,"Stroop_1","internal_consistency"
"101",0.8,0,3000,1,"trial","mean",0.91479,0.88614,0.93995,107,35917,335.672897196262,1,0.699318535825545,"Stroop_1","internal_consistency"
"102",0.9,0,3000,1,"trial","mean",0.91318,0.88318,0.93774,107,35917,335.672897196262,1,0.699318535825545,"Stroop_1","internal_consistency"
"103",0,100,3000,1,"trial","mean",0.92414,0.89948,0.9458,107,35857,335.11214953271,1,0.69815031152648,"Stroop_1","internal_consistency"
"104",0.8,100,3000,1,"trial","mean",0.9246,0.89639,0.94749,107,35857,335.11214953271,1,0.69815031152648,"Stroop_1","internal_consistency"
"105",0.9,100,3000,1,"trial","mean",0.92507,0.89745,0.94458,107,35857,335.11214953271,1,0.69815031152648,"Stroop_1","internal_consistency"
"106",0,200,3000,1,"trial","mean",0.92043,0.89044,0.94364,107,35831,334.869158878505,1,0.697644080996885,"Stroop_1","internal_consistency"
"107",0.8,200,3000,1,"trial","mean",0.92035,0.88996,0.94433,107,35831,334.869158878505,1,0.697644080996885,"Stroop_1","internal_consistency"
"108",0.9,200,3000,1,"trial","mean",0.92119,0.89195,0.94399,107,35831,334.869158878505,1,0.697644080996885,"Stroop_1","internal_consistency"
"109",0,0,2000,2,"trial","mean",0.82274,0.76302,0.87291,107,44867,419.317757009346,1,0.873578660436137,"Stroop_1","internal_consistency"
"110",0.8,0,2000,2,"trial","mean",0.82413,0.75635,0.87376,107,44867,419.317757009346,1,0.873578660436137,"Stroop_1","internal_consistency"
"111",0.9,0,2000,2,"trial","mean",0.82439,0.76866,0.87403,107,44867,419.317757009346,1,0.873578660436137,"Stroop_1","internal_consistency"
"112",0,100,2000,2,"trial","mean",0.83232,0.77275,0.87698,107,44824,418.915887850467,1,0.872741433021807,"Stroop_1","internal_consistency"
"113",0.8,100,2000,2,"trial","mean",0.83546,0.77657,0.8821,107,44824,418.915887850467,1,0.872741433021807,"Stroop_1","internal_consistency"
"114",0.9,100,2000,2,"trial","mean",0.83395,0.77378,0.8809,107,44824,418.915887850467,1,0.872741433021807,"Stroop_1","internal_consistency"
"115",0,200,2000,2,"trial","mean",0.8163,0.73974,0.86459,107,44792,418.616822429907,1,0.872118380062305,"Stroop_1","internal_consistency"
"116",0.8,200,2000,2,"trial","mean",0.81641,0.73973,0.87179,107,44792,418.616822429907,1,0.872118380062305,"Stroop_1","internal_consistency"
"117",0.9,200,2000,2,"trial","mean",0.81424,0.73624,0.86879,107,44792,418.616822429907,1,0.872118380062305,"Stroop_1","internal_consistency"
"118",0,0,3000,2,"trial","mean",0.82535,0.76745,0.87479,107,45078,421.289719626168,1,0.87768691588785,"Stroop_1","internal_consistency"
"119",0.8,0,3000,2,"trial","mean",0.8241,0.76575,0.87127,107,45078,421.289719626168,1,0.87768691588785,"Stroop_1","internal_consistency"
"120",0.9,0,3000,2,"trial","mean",0.82411,0.76528,0.87303,107,45078,421.289719626168,1,0.87768691588785,"Stroop_1","internal_consistency"
"121",0,100,3000,2,"trial","mean",0.83563,0.77394,0.88003,107,45034,420.878504672897,1,0.876830218068536,"Stroop_1","internal_consistency"
"122",0.8,100,3000,2,"trial","mean",0.83482,0.7755,0.88107,107,45034,420.878504672897,1,0.876830218068536,"Stroop_1","internal_consistency"
"123",0.9,100,3000,2,"trial","mean",0.83429,0.77781,0.88046,107,45034,420.878504672897,1,0.876830218068536,"Stroop_1","internal_consistency"
"124",0,200,3000,2,"trial","mean",0.81549,0.73758,0.86905,107,45003,420.588785046729,1,0.876226635514019,"Stroop_1","internal_consistency"
"125",0.8,200,3000,2,"trial","mean",0.81521,0.73668,0.87247,107,45003,420.588785046729,1,0.876226635514019,"Stroop_1","internal_consistency"
"126",0.9,200,3000,2,"trial","mean",0.82079,0.72652,0.87297,107,45003,420.588785046729,1,0.876226635514019,"Stroop_1","internal_consistency"
"127",0,0,2000,3,"trial","mean",0.79856,0.73454,0.85288,107,46259,432.327102803738,1,0.900681464174455,"Stroop_1","internal_consistency"
"128",0.8,0,2000,3,"trial","mean",0.79588,0.72985,0.85509,107,46259,432.327102803738,1,0.900681464174455,"Stroop_1","internal_consistency"
"129",0.9,0,2000,3,"trial","mean",0.79773,0.72657,0.85403,107,46259,432.327102803738,1,0.900681464174455,"Stroop_1","internal_consistency"
"130",0,100,2000,3,"trial","mean",0.80363,0.73175,0.85433,107,46213,431.897196261682,1,0.899785825545171,"Stroop_1","internal_consistency"
"131",0.8,100,2000,3,"trial","mean",0.80295,0.72581,0.85856,107,46213,431.897196261682,1,0.899785825545171,"Stroop_1","internal_consistency"
"132",0.9,100,2000,3,"trial","mean",0.80554,0.7312,0.86106,107,46213,431.897196261682,1,0.899785825545171,"Stroop_1","internal_consistency"
"133",0,200,2000,3,"trial","mean",0.79199,0.69587,0.85173,107,46179,431.579439252336,1,0.899123831775701,"Stroop_1","internal_consistency"
"134",0.8,200,2000,3,"trial","mean",0.79709,0.72752,0.85647,107,46179,431.579439252336,1,0.899123831775701,"Stroop_1","internal_consistency"
"135",0.9,200,2000,3,"trial","mean",0.79241,0.71086,0.85452,107,46179,431.579439252336,1,0.899123831775701,"Stroop_1","internal_consistency"
"136",0,0,3000,3,"trial","mean",0.80389,0.73778,0.86327,107,46379,433.448598130841,1,0.903017912772586,"Stroop_1","internal_consistency"
"137",0.8,0,3000,3,"trial","mean",0.80166,0.73041,0.86337,107,46379,433.448598130841,1,0.903017912772586,"Stroop_1","internal_consistency"
"138",0.9,0,3000,3,"trial","mean",0.80156,0.73035,0.85842,107,46379,433.448598130841,1,0.903017912772586,"Stroop_1","internal_consistency"
"139",0,100,3000,3,"trial","mean",0.8103,0.74022,0.86278,107,46332,433.009345794393,1,0.902102803738318,"Stroop_1","internal_consistency"
"140",0.8,100,3000,3,"trial","mean",0.80909,0.74333,0.8617,107,46332,433.009345794393,1,0.902102803738318,"Stroop_1","internal_consistency"
"141",0.9,100,3000,3,"trial","mean",0.81142,0.73957,0.86612,107,46332,433.009345794393,1,0.902102803738318,"Stroop_1","internal_consistency"
"142",0,200,3000,3,"trial","mean",0.80221,0.71345,0.86047,107,46297,432.682242990654,1,0.901421339563863,"Stroop_1","internal_consistency"
"143",0.8,200,3000,3,"trial","mean",0.80131,0.72775,0.85455,107,46297,432.682242990654,1,0.901421339563863,"Stroop_1","internal_consistency"
"144",0.9,200,3000,3,"trial","mean",0.79974,0.71045,0.86163,107,46297,432.682242990654,1,0.901421339563863,"Stroop_1","internal_consistency"
"145",0,0,2000,0,"subject","median",0.75218,0.67769,0.81924,107,46974,439.009345794393,1,0.914602803738318,"Stroop_1","internal_consistency"
"146",0.8,0,2000,0,"subject","median",0.75526,0.66929,0.81885,107,46974,439.009345794393,1,0.914602803738318,"Stroop_1","internal_consistency"
"147",0.9,0,2000,0,"subject","median",0.75541,0.6753,0.82328,107,46974,439.009345794393,1,0.914602803738318,"Stroop_1","internal_consistency"
"148",0,100,2000,0,"subject","median",0.76555,0.67852,0.83621,107,46925,438.551401869159,1,0.913648753894081,"Stroop_1","internal_consistency"
"149",0.8,100,2000,0,"subject","median",0.76411,0.67027,0.83667,107,46925,438.551401869159,1,0.913648753894081,"Stroop_1","internal_consistency"
"150",0.9,100,2000,0,"subject","median",0.76685,0.67059,0.84173,107,46925,438.551401869159,1,0.913648753894081,"Stroop_1","internal_consistency"
"151",0,200,2000,0,"subject","median",0.75996,0.64697,0.83023,107,46891,438.233644859813,1,0.912986760124611,"Stroop_1","internal_consistency"
"152",0.8,200,2000,0,"subject","median",0.75741,0.64978,0.82689,107,46891,438.233644859813,1,0.912986760124611,"Stroop_1","internal_consistency"
"153",0.9,200,2000,0,"subject","median",0.75806,0.65026,0.8299,107,46891,438.233644859813,1,0.912986760124611,"Stroop_1","internal_consistency"
"154",0,0,3000,0,"subject","median",0.76039,0.67711,0.8218,107,47120,440.373831775701,1,0.917445482866044,"Stroop_1","internal_consistency"
"155",0.8,0,3000,0,"subject","median",0.76279,0.6786,0.82445,107,47120,440.373831775701,1,0.917445482866044,"Stroop_1","internal_consistency"
"156",0.9,0,3000,0,"subject","median",0.76128,0.68882,0.82931,107,47120,440.373831775701,1,0.917445482866044,"Stroop_1","internal_consistency"
"157",0,100,3000,0,"subject","median",0.77416,0.69104,0.84141,107,47071,439.915887850467,1,0.916491433021807,"Stroop_1","internal_consistency"
"158",0.8,100,3000,0,"subject","median",0.77156,0.68266,0.83979,107,47071,439.915887850467,1,0.916491433021807,"Stroop_1","internal_consistency"
"159",0.9,100,3000,0,"subject","median",0.77369,0.69449,0.8415,107,47071,439.915887850467,1,0.916491433021807,"Stroop_1","internal_consistency"
"160",0,200,3000,0,"subject","median",0.76382,0.66323,0.83242,107,47037,439.598130841121,1,0.915829439252336,"Stroop_1","internal_consistency"
"161",0.8,200,3000,0,"subject","median",0.77096,0.67991,0.84002,107,47037,439.598130841121,1,0.915829439252336,"Stroop_1","internal_consistency"
"162",0.9,200,3000,0,"subject","median",0.76663,0.67294,0.83867,107,47037,439.598130841121,1,0.915829439252336,"Stroop_1","internal_consistency"
"163",0,0,2000,1,"subject","median",0.68167,0.57532,0.77094,107,35186,328.841121495327,1,0.685085669781931,"Stroop_1","internal_consistency"
"164",0.8,0,2000,1,"subject","median",0.68005,0.57195,0.77185,107,35186,328.841121495327,1,0.685085669781931,"Stroop_1","internal_consistency"
"165",0.9,0,2000,1,"subject","median",0.68324,0.56188,0.77599,107,35186,328.841121495327,1,0.685085669781931,"Stroop_1","internal_consistency"
"166",0,100,2000,1,"subject","median",0.68769,0.5377,0.79097,107,35135,328.364485981308,1,0.684092679127726,"Stroop_1","internal_consistency"
"167",0.8,100,2000,1,"subject","median",0.69312,0.54137,0.7914,107,35135,328.364485981308,1,0.684092679127726,"Stroop_1","internal_consistency"
"168",0.9,100,2000,1,"subject","median",0.69551,0.56199,0.79386,107,35135,328.364485981308,1,0.684092679127726,"Stroop_1","internal_consistency"
"169",0,200,2000,1,"subject","median",0.71629,0.58432,0.80688,107,35103,328.065420560748,1,0.683469626168224,"Stroop_1","internal_consistency"
"170",0.8,200,2000,1,"subject","median",0.71143,0.57496,0.80349,107,35103,328.065420560748,1,0.683469626168224,"Stroop_1","internal_consistency"
"171",0.9,200,2000,1,"subject","median",0.71405,0.56423,0.80526,107,35103,328.065420560748,1,0.683469626168224,"Stroop_1","internal_consistency"
"172",0,0,3000,1,"subject","median",0.73227,0.64266,0.80716,107,36190,338.224299065421,1,0.704633956386293,"Stroop_1","internal_consistency"
"173",0.8,0,3000,1,"subject","median",0.73189,0.64083,0.8068,107,36190,338.224299065421,1,0.704633956386293,"Stroop_1","internal_consistency"
"174",0.9,0,3000,1,"subject","median",0.73109,0.64055,0.81003,107,36190,338.224299065421,1,0.704633956386293,"Stroop_1","internal_consistency"
"175",0,100,3000,1,"subject","median",0.73876,0.63091,0.82483,107,36147,337.822429906542,1,0.703796728971963,"Stroop_1","internal_consistency"
"176",0.8,100,3000,1,"subject","median",0.73862,0.64344,0.81499,107,36147,337.822429906542,1,0.703796728971963,"Stroop_1","internal_consistency"
"177",0.9,100,3000,1,"subject","median",0.74468,0.64335,0.82386,107,36147,337.822429906542,1,0.703796728971963,"Stroop_1","internal_consistency"
"178",0,200,3000,1,"subject","median",0.7524,0.60941,0.83794,107,36116,337.532710280374,1,0.703193146417445,"Stroop_1","internal_consistency"
"179",0.8,200,3000,1,"subject","median",0.75635,0.61362,0.8371,107,36116,337.532710280374,1,0.703193146417445,"Stroop_1","internal_consistency"
"180",0.9,200,3000,1,"subject","median",0.7555,0.63465,0.83818,107,36116,337.532710280374,1,0.703193146417445,"Stroop_1","internal_consistency"
"181",0,0,2000,2,"subject","median",0.74611,0.66253,0.81857,107,44853,419.18691588785,1,0.873306074766355,"Stroop_1","internal_consistency"
"182",0.8,0,2000,2,"subject","median",0.74494,0.65449,0.8137,107,44853,419.18691588785,1,0.873306074766355,"Stroop_1","internal_consistency"
"183",0.9,0,2000,2,"subject","median",0.7433,0.65384,0.81757,107,44853,419.18691588785,1,0.873306074766355,"Stroop_1","internal_consistency"
"184",0,100,2000,2,"subject","median",0.75355,0.64862,0.82698,107,44811,418.794392523364,1,0.872488317757009,"Stroop_1","internal_consistency"
"185",0.8,100,2000,2,"subject","median",0.75737,0.67115,0.82603,107,44811,418.794392523364,1,0.872488317757009,"Stroop_1","internal_consistency"
"186",0.9,100,2000,2,"subject","median",0.75925,0.66284,0.83547,107,44811,418.794392523364,1,0.872488317757009,"Stroop_1","internal_consistency"
"187",0,200,2000,2,"subject","median",0.7635,0.66444,0.8385,107,44779,418.495327102804,1,0.871865264797508,"Stroop_1","internal_consistency"
"188",0.8,200,2000,2,"subject","median",0.75687,0.66186,0.82579,107,44779,418.495327102804,1,0.871865264797508,"Stroop_1","internal_consistency"
"189",0.9,200,2000,2,"subject","median",0.76318,0.6669,0.83862,107,44779,418.495327102804,1,0.871865264797508,"Stroop_1","internal_consistency"
"190",0,0,3000,2,"subject","median",0.75601,0.67247,0.82593,107,45101,421.504672897196,1,0.878134735202492,"Stroop_1","internal_consistency"
"191",0.8,0,3000,2,"subject","median",0.75495,0.67444,0.82511,107,45101,421.504672897196,1,0.878134735202492,"Stroop_1","internal_consistency"
"192",0.9,0,3000,2,"subject","median",0.75228,0.6673,0.8212,107,45101,421.504672897196,1,0.878134735202492,"Stroop_1","internal_consistency"
"193",0,100,3000,2,"subject","median",0.76366,0.66185,0.83478,107,45058,421.102803738318,1,0.877297507788162,"Stroop_1","internal_consistency"
"194",0.8,100,3000,2,"subject","median",0.76438,0.66864,0.82954,107,45058,421.102803738318,1,0.877297507788162,"Stroop_1","internal_consistency"
"195",0.9,100,3000,2,"subject","median",0.76423,0.67127,0.83423,107,45058,421.102803738318,1,0.877297507788162,"Stroop_1","internal_consistency"
"196",0,200,3000,2,"subject","median",0.7689,0.65927,0.83893,107,45026,420.803738317757,1,0.87667445482866,"Stroop_1","internal_consistency"
"197",0.8,200,3000,2,"subject","median",0.76507,0.66056,0.83897,107,45026,420.803738317757,1,0.87667445482866,"Stroop_1","internal_consistency"
"198",0.9,200,3000,2,"subject","median",0.76728,0.66012,0.8413,107,45026,420.803738317757,1,0.87667445482866,"Stroop_1","internal_consistency"
"199",0,0,2000,3,"subject","median",0.75172,0.68148,0.81581,107,46244,432.18691588785,1,0.900389408099688,"Stroop_1","internal_consistency"
"200",0.8,0,2000,3,"subject","median",0.74783,0.66426,0.8172,107,46244,432.18691588785,1,0.900389408099688,"Stroop_1","internal_consistency"
"201",0.9,0,2000,3,"subject","median",0.75195,0.67127,0.81533,107,46244,432.18691588785,1,0.900389408099688,"Stroop_1","internal_consistency"
"202",0,100,2000,3,"subject","median",0.76248,0.6716,0.83825,107,46197,431.747663551402,1,0.899474299065421,"Stroop_1","internal_consistency"
"203",0.8,100,2000,3,"subject","median",0.76188,0.66928,0.83477,107,46197,431.747663551402,1,0.899474299065421,"Stroop_1","internal_consistency"
"204",0.9,100,2000,3,"subject","median",0.7592,0.65711,0.83285,107,46197,431.747663551402,1,0.899474299065421,"Stroop_1","internal_consistency"
"205",0,200,2000,3,"subject","median",0.75844,0.65218,0.83142,107,46163,431.429906542056,1,0.89881230529595,"Stroop_1","internal_consistency"
"206",0.8,200,2000,3,"subject","median",0.76039,0.65675,0.82899,107,46163,431.429906542056,1,0.89881230529595,"Stroop_1","internal_consistency"
"207",0.9,200,2000,3,"subject","median",0.75878,0.65448,0.83342,107,46163,431.429906542056,1,0.89881230529595,"Stroop_1","internal_consistency"
"208",0,0,3000,3,"subject","median",0.75774,0.67645,0.83419,107,46372,433.383177570093,1,0.902881619937695,"Stroop_1","internal_consistency"
"209",0.8,0,3000,3,"subject","median",0.7586,0.67246,0.82549,107,46372,433.383177570093,1,0.902881619937695,"Stroop_1","internal_consistency"
"210",0.9,0,3000,3,"subject","median",0.76022,0.68154,0.82788,107,46372,433.383177570093,1,0.902881619937695,"Stroop_1","internal_consistency"
"211",0,100,3000,3,"subject","median",0.7722,0.69087,0.8481,107,46324,432.934579439252,1,0.901947040498442,"Stroop_1","internal_consistency"
"212",0.8,100,3000,3,"subject","median",0.76978,0.6819,0.83844,107,46324,432.934579439252,1,0.901947040498442,"Stroop_1","internal_consistency"
"213",0.9,100,3000,3,"subject","median",0.76651,0.67146,0.83837,107,46324,432.934579439252,1,0.901947040498442,"Stroop_1","internal_consistency"
"214",0,200,3000,3,"subject","median",0.76344,0.67478,0.82986,107,46290,432.616822429907,1,0.901285046728972,"Stroop_1","internal_consistency"
"215",0.8,200,3000,3,"subject","median",0.76395,0.65002,0.83756,107,46290,432.616822429907,1,0.901285046728972,"Stroop_1","internal_consistency"
"216",0.9,200,3000,3,"subject","median",0.76707,0.6654,0.83705,107,46290,432.616822429907,1,0.901285046728972,"Stroop_1","internal_consistency"
"217",0,0,2000,0,"trial","median",0.75466,0.66632,0.82229,107,46974,439.009345794393,1,0.914602803738318,"Stroop_1","internal_consistency"
"218",0.8,0,2000,0,"trial","median",0.75466,0.67618,0.82401,107,46974,439.009345794393,1,0.914602803738318,"Stroop_1","internal_consistency"
"219",0.9,0,2000,0,"trial","median",0.75735,0.68215,0.82839,107,46974,439.009345794393,1,0.914602803738318,"Stroop_1","internal_consistency"
"220",0,100,2000,0,"trial","median",0.76653,0.68564,0.83254,107,46925,438.551401869159,1,0.913648753894081,"Stroop_1","internal_consistency"
"221",0.8,100,2000,0,"trial","median",0.76633,0.66749,0.84121,107,46925,438.551401869159,1,0.913648753894081,"Stroop_1","internal_consistency"
"222",0.9,100,2000,0,"trial","median",0.76273,0.67263,0.84062,107,46925,438.551401869159,1,0.913648753894081,"Stroop_1","internal_consistency"
"223",0,200,2000,0,"trial","median",0.75798,0.65621,0.83378,107,46891,438.233644859813,1,0.912986760124611,"Stroop_1","internal_consistency"
"224",0.8,200,2000,0,"trial","median",0.75913,0.65539,0.83522,107,46891,438.233644859813,1,0.912986760124611,"Stroop_1","internal_consistency"
"225",0.9,200,2000,0,"trial","median",0.75804,0.6567,0.83051,107,46891,438.233644859813,1,0.912986760124611,"Stroop_1","internal_consistency"
"226",0,0,3000,0,"trial","median",0.76431,0.68792,0.83311,107,47120,440.373831775701,1,0.917445482866044,"Stroop_1","internal_consistency"
"227",0.8,0,3000,0,"trial","median",0.76237,0.6793,0.82534,107,47120,440.373831775701,1,0.917445482866044,"Stroop_1","internal_consistency"
"228",0.9,0,3000,0,"trial","median",0.76358,0.67905,0.82934,107,47120,440.373831775701,1,0.917445482866044,"Stroop_1","internal_consistency"
"229",0,100,3000,0,"trial","median",0.77334,0.6764,0.84637,107,47071,439.915887850467,1,0.916491433021807,"Stroop_1","internal_consistency"
"230",0.8,100,3000,0,"trial","median",0.77443,0.67364,0.84277,107,47071,439.915887850467,1,0.916491433021807,"Stroop_1","internal_consistency"
"231",0.9,100,3000,0,"trial","median",0.77037,0.67867,0.84644,107,47071,439.915887850467,1,0.916491433021807,"Stroop_1","internal_consistency"
"232",0,200,3000,0,"trial","median",0.77161,0.67923,0.83815,107,47037,439.598130841121,1,0.915829439252336,"Stroop_1","internal_consistency"
"233",0.8,200,3000,0,"trial","median",0.76824,0.67603,0.83195,107,47037,439.598130841121,1,0.915829439252336,"Stroop_1","internal_consistency"
"234",0.9,200,3000,0,"trial","median",0.76873,0.67353,0.83947,107,47037,439.598130841121,1,0.915829439252336,"Stroop_1","internal_consistency"
"235",0,0,2000,1,"trial","median",0.84729,0.79691,0.8865,107,35055,327.616822429907,1,0.682535046728972,"Stroop_1","internal_consistency"
"236",0.8,0,2000,1,"trial","median",0.84907,0.7977,0.89049,107,35055,327.616822429907,1,0.682535046728972,"Stroop_1","internal_consistency"
"237",0.9,0,2000,1,"trial","median",0.84982,0.80446,0.89032,107,35055,327.616822429907,1,0.682535046728972,"Stroop_1","internal_consistency"
"238",0,100,2000,1,"trial","median",0.87109,0.82049,0.91013,107,34998,327.084112149533,1,0.68142523364486,"Stroop_1","internal_consistency"
"239",0.8,100,2000,1,"trial","median",0.8694,0.81942,0.91025,107,34998,327.084112149533,1,0.68142523364486,"Stroop_1","internal_consistency"
"240",0.9,100,2000,1,"trial","median",0.86989,0.81539,0.90917,107,34998,327.084112149533,1,0.68142523364486,"Stroop_1","internal_consistency"
"241",0,200,2000,1,"trial","median",0.86463,0.81572,0.90413,107,34973,326.85046728972,1,0.680938473520249,"Stroop_1","internal_consistency"
"242",0.8,200,2000,1,"trial","median",0.86551,0.81362,0.90376,107,34973,326.85046728972,1,0.680938473520249,"Stroop_1","internal_consistency"
"243",0.9,200,2000,1,"trial","median",0.86452,0.81443,0.90426,107,34973,326.85046728972,1,0.680938473520249,"Stroop_1","internal_consistency"
"244",0,0,3000,1,"trial","median",0.85262,0.80235,0.89359,107,35917,335.672897196262,1,0.699318535825545,"Stroop_1","internal_consistency"
"245",0.8,0,3000,1,"trial","median",0.85213,0.80117,0.89396,107,35917,335.672897196262,1,0.699318535825545,"Stroop_1","internal_consistency"
"246",0.9,0,3000,1,"trial","median",0.85313,0.80568,0.89449,107,35917,335.672897196262,1,0.699318535825545,"Stroop_1","internal_consistency"
"247",0,100,3000,1,"trial","median",0.87281,0.82351,0.90973,107,35857,335.11214953271,1,0.69815031152648,"Stroop_1","internal_consistency"
"248",0.8,100,3000,1,"trial","median",0.87321,0.82852,0.90982,107,35857,335.11214953271,1,0.69815031152648,"Stroop_1","internal_consistency"
"249",0.9,100,3000,1,"trial","median",0.8742,0.8248,0.90927,107,35857,335.11214953271,1,0.69815031152648,"Stroop_1","internal_consistency"
"250",0,200,3000,1,"trial","median",0.8681,0.82124,0.90878,107,35831,334.869158878505,1,0.697644080996885,"Stroop_1","internal_consistency"
"251",0.8,200,3000,1,"trial","median",0.86745,0.81625,0.90641,107,35831,334.869158878505,1,0.697644080996885,"Stroop_1","internal_consistency"
"252",0.9,200,3000,1,"trial","median",0.86737,0.81674,0.90495,107,35831,334.869158878505,1,0.697644080996885,"Stroop_1","internal_consistency"
"253",0,0,2000,2,"trial","median",0.76948,0.69198,0.83595,107,44867,419.317757009346,1,0.873578660436137,"Stroop_1","internal_consistency"
"254",0.8,0,2000,2,"trial","median",0.7708,0.69478,0.83551,107,44867,419.317757009346,1,0.873578660436137,"Stroop_1","internal_consistency"
"255",0.9,0,2000,2,"trial","median",0.774,0.68557,0.83856,107,44867,419.317757009346,1,0.873578660436137,"Stroop_1","internal_consistency"
"256",0,100,2000,2,"trial","median",0.78312,0.70231,0.85103,107,44824,418.915887850467,1,0.872741433021807,"Stroop_1","internal_consistency"
"257",0.8,100,2000,2,"trial","median",0.78087,0.68106,0.84774,107,44824,418.915887850467,1,0.872741433021807,"Stroop_1","internal_consistency"
"258",0.9,100,2000,2,"trial","median",0.783,0.69164,0.85093,107,44824,418.915887850467,1,0.872741433021807,"Stroop_1","internal_consistency"
"259",0,200,2000,2,"trial","median",0.77441,0.67297,0.83857,107,44792,418.616822429907,1,0.872118380062305,"Stroop_1","internal_consistency"
"260",0.8,200,2000,2,"trial","median",0.77293,0.68225,0.8421,107,44792,418.616822429907,1,0.872118380062305,"Stroop_1","internal_consistency"
"261",0.9,200,2000,2,"trial","median",0.77478,0.68472,0.84116,107,44792,418.616822429907,1,0.872118380062305,"Stroop_1","internal_consistency"
"262",0,0,3000,2,"trial","median",0.77322,0.68337,0.83155,107,45078,421.289719626168,1,0.87768691588785,"Stroop_1","internal_consistency"
"263",0.8,0,3000,2,"trial","median",0.77305,0.7022,0.8365,107,45078,421.289719626168,1,0.87768691588785,"Stroop_1","internal_consistency"
"264",0.9,0,3000,2,"trial","median",0.77418,0.69426,0.83771,107,45078,421.289719626168,1,0.87768691588785,"Stroop_1","internal_consistency"
"265",0,100,3000,2,"trial","median",0.78042,0.69722,0.84321,107,45034,420.878504672897,1,0.876830218068536,"Stroop_1","internal_consistency"
"266",0.8,100,3000,2,"trial","median",0.78271,0.70175,0.84477,107,45034,420.878504672897,1,0.876830218068536,"Stroop_1","internal_consistency"
"267",0.9,100,3000,2,"trial","median",0.7791,0.69551,0.8426,107,45034,420.878504672897,1,0.876830218068536,"Stroop_1","internal_consistency"
"268",0,200,3000,2,"trial","median",0.77204,0.67106,0.84248,107,45003,420.588785046729,1,0.876226635514019,"Stroop_1","internal_consistency"
"269",0.8,200,3000,2,"trial","median",0.77638,0.67343,0.8425,107,45003,420.588785046729,1,0.876226635514019,"Stroop_1","internal_consistency"
"270",0.9,200,3000,2,"trial","median",0.77499,0.67231,0.84757,107,45003,420.588785046729,1,0.876226635514019,"Stroop_1","internal_consistency"
"271",0,0,2000,3,"trial","median",0.76478,0.69655,0.82826,107,46259,432.327102803738,1,0.900681464174455,"Stroop_1","internal_consistency"
"272",0.8,0,2000,3,"trial","median",0.76187,0.68084,0.82874,107,46259,432.327102803738,1,0.900681464174455,"Stroop_1","internal_consistency"
"273",0.9,0,2000,3,"trial","median",0.76549,0.68651,0.83095,107,46259,432.327102803738,1,0.900681464174455,"Stroop_1","internal_consistency"
"274",0,100,2000,3,"trial","median",0.77221,0.68185,0.84524,107,46213,431.897196261682,1,0.899785825545171,"Stroop_1","internal_consistency"
"275",0.8,100,2000,3,"trial","median",0.77195,0.68177,0.8375,107,46213,431.897196261682,1,0.899785825545171,"Stroop_1","internal_consistency"
"276",0.9,100,2000,3,"trial","median",0.76969,0.68616,0.83836,107,46213,431.897196261682,1,0.899785825545171,"Stroop_1","internal_consistency"
"277",0,200,2000,3,"trial","median",0.77007,0.67202,0.83633,107,46179,431.579439252336,1,0.899123831775701,"Stroop_1","internal_consistency"
"278",0.8,200,2000,3,"trial","median",0.76878,0.66652,0.84283,107,46179,431.579439252336,1,0.899123831775701,"Stroop_1","internal_consistency"
"279",0.9,200,2000,3,"trial","median",0.76922,0.66447,0.84187,107,46179,431.579439252336,1,0.899123831775701,"Stroop_1","internal_consistency"
"280",0,0,3000,3,"trial","median",0.77038,0.69473,0.83,107,46379,433.448598130841,1,0.903017912772586,"Stroop_1","internal_consistency"
"281",0.8,0,3000,3,"trial","median",0.76892,0.69033,0.82991,107,46379,433.448598130841,1,0.903017912772586,"Stroop_1","internal_consistency"
"282",0.9,0,3000,3,"trial","median",0.76685,0.68515,0.83279,107,46379,433.448598130841,1,0.903017912772586,"Stroop_1","internal_consistency"
"283",0,100,3000,3,"trial","median",0.7783,0.68922,0.83979,107,46332,433.009345794393,1,0.902102803738318,"Stroop_1","internal_consistency"
"284",0.8,100,3000,3,"trial","median",0.77494,0.67473,0.84414,107,46332,433.009345794393,1,0.902102803738318,"Stroop_1","internal_consistency"
"285",0.9,100,3000,3,"trial","median",0.77608,0.67764,0.8421,107,46332,433.009345794393,1,0.902102803738318,"Stroop_1","internal_consistency"
"286",0,200,3000,3,"trial","median",0.77645,0.66824,0.84765,107,46297,432.682242990654,1,0.901421339563863,"Stroop_1","internal_consistency"
"287",0.8,200,3000,3,"trial","median",0.77235,0.67791,0.83967,107,46297,432.682242990654,1,0.901421339563863,"Stroop_1","internal_consistency"
"288",0.9,200,3000,3,"trial","median",0.77642,0.69346,0.83893,107,46297,432.682242990654,1,0.901421339563863,"Stroop_1","internal_consistency"
"289",0,0,2000,0,"subject","mean",0.66382,0.52083,0.76167,107,45829,428.308411214953,1,0.892309190031153,"Stroop_2","internal_consistency"
"290",0.8,0,2000,0,"subject","mean",0.6589,0.52817,0.7545,107,45829,428.308411214953,1,0.892309190031153,"Stroop_2","internal_consistency"
"291",0.9,0,2000,0,"subject","mean",0.65503,0.53098,0.75483,107,45829,428.308411214953,1,0.892309190031153,"Stroop_2","internal_consistency"
"292",0,100,2000,0,"subject","mean",0.64935,0.51884,0.75007,107,45701,427.11214953271,1,0.889816978193146,"Stroop_2","internal_consistency"
"293",0.8,100,2000,0,"subject","mean",0.64416,0.50731,0.75283,107,45701,427.11214953271,1,0.889816978193146,"Stroop_2","internal_consistency"
"294",0.9,100,2000,0,"subject","mean",0.6483,0.5205,0.75114,107,45701,427.11214953271,1,0.889816978193146,"Stroop_2","internal_consistency"
"295",0,200,2000,0,"subject","mean",0.62361,0.48382,0.73756,107,45612,426.280373831776,1,0.888084112149533,"Stroop_2","internal_consistency"
"296",0.8,200,2000,0,"subject","mean",0.62471,0.45206,0.73344,107,45612,426.280373831776,1,0.888084112149533,"Stroop_2","internal_consistency"
"297",0.9,200,2000,0,"subject","mean",0.62192,0.43286,0.73981,107,45612,426.280373831776,1,0.888084112149533,"Stroop_2","internal_consistency"
"298",0,0,3000,0,"subject","mean",0.66835,0.53843,0.7737,107,45915,429.11214953271,1,0.893983644859813,"Stroop_2","internal_consistency"
"299",0.8,0,3000,0,"subject","mean",0.67137,0.54345,0.77584,107,45915,429.11214953271,1,0.893983644859813,"Stroop_2","internal_consistency"
"300",0.9,0,3000,0,"subject","mean",0.67491,0.56133,0.76805,107,45915,429.11214953271,1,0.893983644859813,"Stroop_2","internal_consistency"
"301",0,100,3000,0,"subject","mean",0.65678,0.51519,0.76467,107,45787,427.915887850467,1,0.891491433021807,"Stroop_2","internal_consistency"
"302",0.8,100,3000,0,"subject","mean",0.65686,0.48883,0.76527,107,45787,427.915887850467,1,0.891491433021807,"Stroop_2","internal_consistency"
"303",0.9,100,3000,0,"subject","mean",0.65565,0.51054,0.75169,107,45787,427.915887850467,1,0.891491433021807,"Stroop_2","internal_consistency"
"304",0,200,3000,0,"subject","mean",0.63867,0.44979,0.74689,107,45698,427.084112149533,1,0.889758566978193,"Stroop_2","internal_consistency"
"305",0.8,200,3000,0,"subject","mean",0.63441,0.46463,0.74378,107,45698,427.084112149533,1,0.889758566978193,"Stroop_2","internal_consistency"
"306",0.9,200,3000,0,"subject","mean",0.63184,0.4728,0.75403,107,45698,427.084112149533,1,0.889758566978193,"Stroop_2","internal_consistency"
"307",0,0,2000,1,"subject","mean",0.64616,0.50565,0.75118,107,34289,320.457943925234,1,0.667620716510903,"Stroop_2","internal_consistency"
"308",0.8,0,2000,1,"subject","mean",0.64714,0.50862,0.75204,107,34289,320.457943925234,1,0.667620716510903,"Stroop_2","internal_consistency"
"309",0.9,0,2000,1,"subject","mean",0.64511,0.5234,0.74555,107,34289,320.457943925234,1,0.667620716510903,"Stroop_2","internal_consistency"
"310",0,100,2000,1,"subject","mean",0.64468,0.50908,0.74968,107,34207,319.691588785047,1,0.666024143302181,"Stroop_2","internal_consistency"
"311",0.8,100,2000,1,"subject","mean",0.63946,0.49272,0.74671,107,34207,319.691588785047,1,0.666024143302181,"Stroop_2","internal_consistency"
"312",0.9,100,2000,1,"subject","mean",0.64567,0.51757,0.74495,107,34207,319.691588785047,1,0.666024143302181,"Stroop_2","internal_consistency"
"313",0,200,2000,1,"subject","mean",0.64729,0.51329,0.76,107,34108,318.766355140187,1,0.664096573208723,"Stroop_2","internal_consistency"
"314",0.8,200,2000,1,"subject","mean",0.64421,0.50419,0.75036,107,34108,318.766355140187,1,0.664096573208723,"Stroop_2","internal_consistency"
"315",0.9,200,2000,1,"subject","mean",0.64629,0.50635,0.75202,107,34108,318.766355140187,1,0.664096573208723,"Stroop_2","internal_consistency"
"316",0,0,3000,1,"subject","mean",0.65216,0.51861,0.75179,107,34920,326.355140186916,1,0.679906542056075,"Stroop_2","internal_consistency"
"317",0.8,0,3000,1,"subject","mean",0.64504,0.50288,0.75383,107,34920,326.355140186916,1,0.679906542056075,"Stroop_2","internal_consistency"
"318",0.9,0,3000,1,"subject","mean",0.6554,0.51052,0.75325,107,34920,326.355140186916,1,0.679906542056075,"Stroop_2","internal_consistency"
"319",0,100,3000,1,"subject","mean",0.64322,0.4941,0.75621,107,34878,325.96261682243,1,0.679088785046729,"Stroop_2","internal_consistency"
"320",0.8,100,3000,1,"subject","mean",0.64112,0.50309,0.73754,107,34878,325.96261682243,1,0.679088785046729,"Stroop_2","internal_consistency"
"321",0.9,100,3000,1,"subject","mean",0.6425,0.49268,0.74276,107,34878,325.96261682243,1,0.679088785046729,"Stroop_2","internal_consistency"
"322",0,200,3000,1,"subject","mean",0.63806,0.48989,0.74585,107,34801,325.242990654206,1,0.677589563862928,"Stroop_2","internal_consistency"
"323",0.8,200,3000,1,"subject","mean",0.64578,0.49333,0.7516,107,34801,325.242990654206,1,0.677589563862928,"Stroop_2","internal_consistency"
"324",0.9,200,3000,1,"subject","mean",0.63821,0.48627,0.74134,107,34801,325.242990654206,1,0.677589563862928,"Stroop_2","internal_consistency"
"325",0,0,2000,2,"subject","mean",0.69072,0.55021,0.78823,107,43788,409.233644859813,1,0.852570093457944,"Stroop_2","internal_consistency"
"326",0.8,0,2000,2,"subject","mean",0.68938,0.57025,0.78146,107,43788,409.233644859813,1,0.852570093457944,"Stroop_2","internal_consistency"
"327",0.9,0,2000,2,"subject","mean",0.68912,0.57265,0.78094,107,43788,409.233644859813,1,0.852570093457944,"Stroop_2","internal_consistency"
"328",0,100,2000,2,"subject","mean",0.65733,0.5206,0.75341,107,43667,408.102803738318,1,0.850214174454829,"Stroop_2","internal_consistency"
"329",0.8,100,2000,2,"subject","mean",0.65138,0.52198,0.75244,107,43667,408.102803738318,1,0.850214174454829,"Stroop_2","internal_consistency"
"330",0.9,100,2000,2,"subject","mean",0.65893,0.52108,0.76581,107,43667,408.102803738318,1,0.850214174454829,"Stroop_2","internal_consistency"
"331",0,200,2000,2,"subject","mean",0.64901,0.50892,0.75099,107,43595,407.429906542056,1,0.84881230529595,"Stroop_2","internal_consistency"
"332",0.8,200,2000,2,"subject","mean",0.64455,0.49025,0.74642,107,43595,407.429906542056,1,0.84881230529595,"Stroop_2","internal_consistency"
"333",0.9,200,2000,2,"subject","mean",0.64642,0.50453,0.74903,107,43595,407.429906542056,1,0.84881230529595,"Stroop_2","internal_consistency"
"334",0,0,3000,2,"subject","mean",0.6842,0.55928,0.77721,107,43954,410.785046728972,1,0.855802180685358,"Stroop_2","internal_consistency"
"335",0.8,0,3000,2,"subject","mean",0.67373,0.5353,0.77507,107,43954,410.785046728972,1,0.855802180685358,"Stroop_2","internal_consistency"
"336",0.9,0,3000,2,"subject","mean",0.68001,0.55611,0.78042,107,43954,410.785046728972,1,0.855802180685358,"Stroop_2","internal_consistency"
"337",0,100,3000,2,"subject","mean",0.64859,0.51178,0.75249,107,43830,409.626168224299,1,0.85338785046729,"Stroop_2","internal_consistency"
"338",0.8,100,3000,2,"subject","mean",0.65211,0.50333,0.75503,107,43830,409.626168224299,1,0.85338785046729,"Stroop_2","internal_consistency"
"339",0.9,100,3000,2,"subject","mean",0.64959,0.5003,0.75193,107,43830,409.626168224299,1,0.85338785046729,"Stroop_2","internal_consistency"
"340",0,200,3000,2,"subject","mean",0.64083,0.50162,0.74742,107,43753,408.906542056075,1,0.851888629283489,"Stroop_2","internal_consistency"
"341",0.8,200,3000,2,"subject","mean",0.64621,0.49608,0.75288,107,43753,408.906542056075,1,0.851888629283489,"Stroop_2","internal_consistency"
"342",0.9,200,3000,2,"subject","mean",0.64226,0.49935,0.75183,107,43753,408.906542056075,1,0.851888629283489,"Stroop_2","internal_consistency"
"343",0,0,2000,3,"subject","mean",0.68091,0.56157,0.77432,107,45149,421.953271028037,1,0.879069314641745,"Stroop_2","internal_consistency"
"344",0.8,0,2000,3,"subject","mean",0.68789,0.55795,0.77801,107,45149,421.953271028037,1,0.879069314641745,"Stroop_2","internal_consistency"
"345",0.9,0,2000,3,"subject","mean",0.68175,0.56097,0.77474,107,45149,421.953271028037,1,0.879069314641745,"Stroop_2","internal_consistency"
"346",0,100,2000,3,"subject","mean",0.6756,0.54127,0.76051,107,45016,420.710280373832,1,0.876479750778816,"Stroop_2","internal_consistency"
"347",0.8,100,2000,3,"subject","mean",0.66777,0.54551,0.76928,107,45016,420.710280373832,1,0.876479750778816,"Stroop_2","internal_consistency"
"348",0.9,100,2000,3,"subject","mean",0.67344,0.55158,0.76651,107,45016,420.710280373832,1,0.876479750778816,"Stroop_2","internal_consistency"
"349",0,200,2000,3,"subject","mean",0.66324,0.54065,0.76086,107,44925,419.859813084112,1,0.874707943925234,"Stroop_2","internal_consistency"
"350",0.8,200,2000,3,"subject","mean",0.66308,0.54702,0.76575,107,44925,419.859813084112,1,0.874707943925234,"Stroop_2","internal_consistency"
"351",0.9,200,2000,3,"subject","mean",0.66773,0.52777,0.75961,107,44925,419.859813084112,1,0.874707943925234,"Stroop_2","internal_consistency"
"352",0,0,3000,3,"subject","mean",0.68626,0.56695,0.78205,107,45220,422.616822429907,1,0.880451713395639,"Stroop_2","internal_consistency"
"353",0.8,0,3000,3,"subject","mean",0.68142,0.53568,0.78745,107,45220,422.616822429907,1,0.880451713395639,"Stroop_2","internal_consistency"
"354",0.9,0,3000,3,"subject","mean",0.68091,0.54508,0.78741,107,45220,422.616822429907,1,0.880451713395639,"Stroop_2","internal_consistency"
"355",0,100,3000,3,"subject","mean",0.67843,0.53846,0.77621,107,45092,421.420560747664,1,0.877959501557632,"Stroop_2","internal_consistency"
"356",0.8,100,3000,3,"subject","mean",0.6793,0.52781,0.78674,107,45092,421.420560747664,1,0.877959501557632,"Stroop_2","internal_consistency"
"357",0.9,100,3000,3,"subject","mean",0.67628,0.54074,0.77681,107,45092,421.420560747664,1,0.877959501557632,"Stroop_2","internal_consistency"
"358",0,200,3000,3,"subject","mean",0.65497,0.52337,0.7579,107,45003,420.588785046729,1,0.876226635514019,"Stroop_2","internal_consistency"
"359",0.8,200,3000,3,"subject","mean",0.65697,0.51395,0.76212,107,45003,420.588785046729,1,0.876226635514019,"Stroop_2","internal_consistency"
"360",0.9,200,3000,3,"subject","mean",0.65949,0.51966,0.7647,107,45003,420.588785046729,1,0.876226635514019,"Stroop_2","internal_consistency"
"361",0,0,2000,0,"trial","mean",0.65881,0.53759,0.76389,107,45829,428.308411214953,1,0.892309190031153,"Stroop_2","internal_consistency"
"362",0.8,0,2000,0,"trial","mean",0.65944,0.53078,0.75954,107,45829,428.308411214953,1,0.892309190031153,"Stroop_2","internal_consistency"
"363",0.9,0,2000,0,"trial","mean",0.66015,0.53058,0.75824,107,45829,428.308411214953,1,0.892309190031153,"Stroop_2","internal_consistency"
"364",0,100,2000,0,"trial","mean",0.64632,0.51563,0.74715,107,45701,427.11214953271,1,0.889816978193146,"Stroop_2","internal_consistency"
"365",0.8,100,2000,0,"trial","mean",0.64223,0.48766,0.75052,107,45701,427.11214953271,1,0.889816978193146,"Stroop_2","internal_consistency"
"366",0.9,100,2000,0,"trial","mean",0.64356,0.50005,0.75137,107,45701,427.11214953271,1,0.889816978193146,"Stroop_2","internal_consistency"
"367",0,200,2000,0,"trial","mean",0.61911,0.46544,0.73105,107,45612,426.280373831776,1,0.888084112149533,"Stroop_2","internal_consistency"
"368",0.8,200,2000,0,"trial","mean",0.61741,0.46772,0.73522,107,45612,426.280373831776,1,0.888084112149533,"Stroop_2","internal_consistency"
"369",0.9,200,2000,0,"trial","mean",0.62994,0.47808,0.74355,107,45612,426.280373831776,1,0.888084112149533,"Stroop_2","internal_consistency"
"370",0,0,3000,0,"trial","mean",0.67066,0.53694,0.7715,107,45915,429.11214953271,1,0.893983644859813,"Stroop_2","internal_consistency"
"371",0.8,0,3000,0,"trial","mean",0.67226,0.52342,0.78078,107,45915,429.11214953271,1,0.893983644859813,"Stroop_2","internal_consistency"
"372",0.9,0,3000,0,"trial","mean",0.67118,0.5334,0.77225,107,45915,429.11214953271,1,0.893983644859813,"Stroop_2","internal_consistency"
"373",0,100,3000,0,"trial","mean",0.65834,0.5169,0.76708,107,45787,427.915887850467,1,0.891491433021807,"Stroop_2","internal_consistency"
"374",0.8,100,3000,0,"trial","mean",0.6584,0.51979,0.76752,107,45787,427.915887850467,1,0.891491433021807,"Stroop_2","internal_consistency"
"375",0.9,100,3000,0,"trial","mean",0.65508,0.50322,0.76426,107,45787,427.915887850467,1,0.891491433021807,"Stroop_2","internal_consistency"
"376",0,200,3000,0,"trial","mean",0.63408,0.43744,0.75586,107,45698,427.084112149533,1,0.889758566978193,"Stroop_2","internal_consistency"
"377",0.8,200,3000,0,"trial","mean",0.63666,0.46434,0.7449,107,45698,427.084112149533,1,0.889758566978193,"Stroop_2","internal_consistency"
"378",0.9,200,3000,0,"trial","mean",0.63614,0.45462,0.75458,107,45698,427.084112149533,1,0.889758566978193,"Stroop_2","internal_consistency"
"379",0,0,2000,1,"trial","mean",0.89886,0.86054,0.92865,107,34164,319.289719626168,1,0.665186915887851,"Stroop_2","internal_consistency"
"380",0.8,0,2000,1,"trial","mean",0.90045,0.86181,0.92854,107,34164,319.289719626168,1,0.665186915887851,"Stroop_2","internal_consistency"
"381",0.9,0,2000,1,"trial","mean",0.89987,0.86091,0.92932,107,34164,319.289719626168,1,0.665186915887851,"Stroop_2","internal_consistency"
"382",0,100,2000,1,"trial","mean",0.89532,0.8576,0.92616,107,34072,318.429906542056,1,0.663395638629284,"Stroop_2","internal_consistency"
"383",0.8,100,2000,1,"trial","mean",0.89606,0.85915,0.92591,107,34072,318.429906542056,1,0.663395638629284,"Stroop_2","internal_consistency"
"384",0.9,100,2000,1,"trial","mean",0.89554,0.85778,0.925,107,34072,318.429906542056,1,0.663395638629284,"Stroop_2","internal_consistency"
"385",0,200,2000,1,"trial","mean",0.8916,0.84704,0.9252,107,33967,317.448598130841,1,0.661351246105919,"Stroop_2","internal_consistency"
"386",0.8,200,2000,1,"trial","mean",0.8926,0.85006,0.92384,107,33967,317.448598130841,1,0.661351246105919,"Stroop_2","internal_consistency"
"387",0.9,200,2000,1,"trial","mean",0.8931,0.85345,0.92265,107,33967,317.448598130841,1,0.661351246105919,"Stroop_2","internal_consistency"
"388",0,0,3000,1,"trial","mean",0.89098,0.84327,0.92338,107,34757,324.831775700935,1,0.676732866043614,"Stroop_2","internal_consistency"
"389",0.8,0,3000,1,"trial","mean",0.89168,0.84872,0.92815,107,34757,324.831775700935,1,0.676732866043614,"Stroop_2","internal_consistency"
"390",0.9,0,3000,1,"trial","mean",0.89328,0.85243,0.92529,107,34757,324.831775700935,1,0.676732866043614,"Stroop_2","internal_consistency"
"391",0,100,3000,1,"trial","mean",0.88881,0.84256,0.92165,107,34674,324.056074766355,1,0.675116822429907,"Stroop_2","internal_consistency"
"392",0.8,100,3000,1,"trial","mean",0.88941,0.84486,0.92131,107,34674,324.056074766355,1,0.675116822429907,"Stroop_2","internal_consistency"
"393",0.9,100,3000,1,"trial","mean",0.8886,0.84369,0.92296,107,34674,324.056074766355,1,0.675116822429907,"Stroop_2","internal_consistency"
"394",0,200,3000,1,"trial","mean",0.8866,0.8469,0.91679,107,34590,323.271028037383,1,0.673481308411215,"Stroop_2","internal_consistency"
"395",0.8,200,3000,1,"trial","mean",0.88624,0.83655,0.91891,107,34590,323.271028037383,1,0.673481308411215,"Stroop_2","internal_consistency"
"396",0.9,200,3000,1,"trial","mean",0.88733,0.84111,0.91948,107,34590,323.271028037383,1,0.673481308411215,"Stroop_2","internal_consistency"
"397",0,0,2000,2,"trial","mean",0.79477,0.71747,0.85729,107,43846,409.775700934579,1,0.85369937694704,"Stroop_2","internal_consistency"
"398",0.8,0,2000,2,"trial","mean",0.79281,0.71249,0.84933,107,43846,409.775700934579,1,0.85369937694704,"Stroop_2","internal_consistency"
"399",0.9,0,2000,2,"trial","mean",0.79492,0.70239,0.85641,107,43846,409.775700934579,1,0.85369937694704,"Stroop_2","internal_consistency"
"400",0,100,2000,2,"trial","mean",0.77436,0.69716,0.84297,107,43723,408.626168224299,1,0.851304517133956,"Stroop_2","internal_consistency"
"401",0.8,100,2000,2,"trial","mean",0.7719,0.68573,0.84442,107,43723,408.626168224299,1,0.851304517133956,"Stroop_2","internal_consistency"
"402",0.9,100,2000,2,"trial","mean",0.7718,0.66659,0.83952,107,43723,408.626168224299,1,0.851304517133956,"Stroop_2","internal_consistency"
"403",0,200,2000,2,"trial","mean",0.76871,0.67211,0.83937,107,43648,407.92523364486,1,0.849844236760125,"Stroop_2","internal_consistency"
"404",0.8,200,2000,2,"trial","mean",0.77095,0.69513,0.83815,107,43648,407.92523364486,1,0.849844236760125,"Stroop_2","internal_consistency"
"405",0.9,200,2000,2,"trial","mean",0.77073,0.68185,0.84133,107,43648,407.92523364486,1,0.849844236760125,"Stroop_2","internal_consistency"
"406",0,0,3000,2,"trial","mean",0.7917,0.70816,0.85369,107,43969,410.92523364486,1,0.856094236760125,"Stroop_2","internal_consistency"
"407",0.8,0,3000,2,"trial","mean",0.79128,0.69633,0.85983,107,43969,410.92523364486,1,0.856094236760125,"Stroop_2","internal_consistency"
"408",0.9,0,3000,2,"trial","mean",0.79217,0.71189,0.85037,107,43969,410.92523364486,1,0.856094236760125,"Stroop_2","internal_consistency"
"409",0,100,3000,2,"trial","mean",0.77127,0.67768,0.83582,107,43854,409.85046728972,1,0.853855140186916,"Stroop_2","internal_consistency"
"410",0.8,100,3000,2,"trial","mean",0.77497,0.69295,0.8455,107,43854,409.85046728972,1,0.853855140186916,"Stroop_2","internal_consistency"
"411",0.9,100,3000,2,"trial","mean",0.77326,0.68056,0.83542,107,43854,409.85046728972,1,0.853855140186916,"Stroop_2","internal_consistency"
"412",0,200,3000,2,"trial","mean",0.76898,0.67314,0.83938,107,43773,409.093457943925,1,0.852278037383178,"Stroop_2","internal_consistency"
"413",0.8,200,3000,2,"trial","mean",0.7678,0.666,0.83871,107,43773,409.093457943925,1,0.852278037383178,"Stroop_2","internal_consistency"
"414",0.9,200,3000,2,"trial","mean",0.7688,0.67938,0.83273,107,43773,409.093457943925,1,0.852278037383178,"Stroop_2","internal_consistency"
"415",0,0,2000,3,"trial","mean",0.75008,0.65261,0.82295,107,45120,421.682242990654,1,0.878504672897196,"Stroop_2","internal_consistency"
"416",0.8,0,2000,3,"trial","mean",0.75127,0.65655,0.82435,107,45120,421.682242990654,1,0.878504672897196,"Stroop_2","internal_consistency"
"417",0.9,0,2000,3,"trial","mean",0.75482,0.66045,0.83409,107,45120,421.682242990654,1,0.878504672897196,"Stroop_2","internal_consistency"
"418",0,100,2000,3,"trial","mean",0.74823,0.64984,0.8234,107,44990,420.467289719626,1,0.875973520249221,"Stroop_2","internal_consistency"
"419",0.8,100,2000,3,"trial","mean",0.75074,0.66979,0.82115,107,44990,420.467289719626,1,0.875973520249221,"Stroop_2","internal_consistency"
"420",0.9,100,2000,3,"trial","mean",0.7484,0.65015,0.81707,107,44990,420.467289719626,1,0.875973520249221,"Stroop_2","internal_consistency"
"421",0,200,2000,3,"trial","mean",0.73361,0.61968,0.81504,107,44900,419.626168224299,1,0.874221183800623,"Stroop_2","internal_consistency"
"422",0.8,200,2000,3,"trial","mean",0.72857,0.60375,0.81746,107,44900,419.626168224299,1,0.874221183800623,"Stroop_2","internal_consistency"
"423",0.9,200,2000,3,"trial","mean",0.72812,0.59881,0.81543,107,44900,419.626168224299,1,0.874221183800623,"Stroop_2","internal_consistency"
"424",0,0,3000,3,"trial","mean",0.76585,0.66486,0.84193,107,45189,422.327102803738,1,0.879848130841121,"Stroop_2","internal_consistency"
"425",0.8,0,3000,3,"trial","mean",0.76222,0.65688,0.83432,107,45189,422.327102803738,1,0.879848130841121,"Stroop_2","internal_consistency"
"426",0.9,0,3000,3,"trial","mean",0.76127,0.66055,0.8331,107,45189,422.327102803738,1,0.879848130841121,"Stroop_2","internal_consistency"
"427",0,100,3000,3,"trial","mean",0.75711,0.65083,0.83356,107,45060,421.121495327103,1,0.877336448598131,"Stroop_2","internal_consistency"
"428",0.8,100,3000,3,"trial","mean",0.76041,0.67385,0.83417,107,45060,421.121495327103,1,0.877336448598131,"Stroop_2","internal_consistency"
"429",0.9,100,3000,3,"trial","mean",0.76207,0.65852,0.83554,107,45060,421.121495327103,1,0.877336448598131,"Stroop_2","internal_consistency"
"430",0,200,3000,3,"trial","mean",0.73965,0.62007,0.8272,107,44973,420.308411214953,1,0.875642523364486,"Stroop_2","internal_consistency"
"431",0.8,200,3000,3,"trial","mean",0.73477,0.60084,0.81869,107,44973,420.308411214953,1,0.875642523364486,"Stroop_2","internal_consistency"
"432",0.9,200,3000,3,"trial","mean",0.73741,0.62133,0.81648,107,44973,420.308411214953,1,0.875642523364486,"Stroop_2","internal_consistency"
"433",0,0,2000,0,"subject","median",0.66031,0.48935,0.76552,107,45829,428.308411214953,1,0.892309190031153,"Stroop_2","internal_consistency"
"434",0.8,0,2000,0,"subject","median",0.65925,0.49593,0.78396,107,45829,428.308411214953,1,0.892309190031153,"Stroop_2","internal_consistency"
"435",0.9,0,2000,0,"subject","median",0.65725,0.48964,0.76276,107,45829,428.308411214953,1,0.892309190031153,"Stroop_2","internal_consistency"
"436",0,100,2000,0,"subject","median",0.63973,0.50873,0.73892,107,45701,427.11214953271,1,0.889816978193146,"Stroop_2","internal_consistency"
"437",0.8,100,2000,0,"subject","median",0.63639,0.50907,0.74851,107,45701,427.11214953271,1,0.889816978193146,"Stroop_2","internal_consistency"
"438",0.9,100,2000,0,"subject","median",0.63391,0.49628,0.74076,107,45701,427.11214953271,1,0.889816978193146,"Stroop_2","internal_consistency"
"439",0,200,2000,0,"subject","median",0.63227,0.49812,0.7487,107,45612,426.280373831776,1,0.888084112149533,"Stroop_2","internal_consistency"
"440",0.8,200,2000,0,"subject","median",0.63759,0.48765,0.74969,107,45612,426.280373831776,1,0.888084112149533,"Stroop_2","internal_consistency"
"441",0.9,200,2000,0,"subject","median",0.63295,0.47718,0.73802,107,45612,426.280373831776,1,0.888084112149533,"Stroop_2","internal_consistency"
"442",0,0,3000,0,"subject","median",0.67135,0.52785,0.7789,107,45915,429.11214953271,1,0.893983644859813,"Stroop_2","internal_consistency"
"443",0.8,0,3000,0,"subject","median",0.66783,0.50875,0.77698,107,45915,429.11214953271,1,0.893983644859813,"Stroop_2","internal_consistency"
"444",0.9,0,3000,0,"subject","median",0.6723,0.51699,0.78027,107,45915,429.11214953271,1,0.893983644859813,"Stroop_2","internal_consistency"
"445",0,100,3000,0,"subject","median",0.64343,0.51164,0.74585,107,45787,427.915887850467,1,0.891491433021807,"Stroop_2","internal_consistency"
"446",0.8,100,3000,0,"subject","median",0.65485,0.53674,0.75368,107,45787,427.915887850467,1,0.891491433021807,"Stroop_2","internal_consistency"
"447",0.9,100,3000,0,"subject","median",0.64594,0.50065,0.74462,107,45787,427.915887850467,1,0.891491433021807,"Stroop_2","internal_consistency"
"448",0,200,3000,0,"subject","median",0.64184,0.49447,0.74489,107,45698,427.084112149533,1,0.889758566978193,"Stroop_2","internal_consistency"
"449",0.8,200,3000,0,"subject","median",0.63852,0.49464,0.73979,107,45698,427.084112149533,1,0.889758566978193,"Stroop_2","internal_consistency"
"450",0.9,200,3000,0,"subject","median",0.64051,0.48615,0.74792,107,45698,427.084112149533,1,0.889758566978193,"Stroop_2","internal_consistency"
"451",0,0,2000,1,"subject","median",0.61071,0.45048,0.73023,107,34289,320.457943925234,1,0.667620716510903,"Stroop_2","internal_consistency"
"452",0.8,0,2000,1,"subject","median",0.60952,0.44604,0.7368,107,34289,320.457943925234,1,0.667620716510903,"Stroop_2","internal_consistency"
"453",0.9,0,2000,1,"subject","median",0.61277,0.44613,0.72855,107,34289,320.457943925234,1,0.667620716510903,"Stroop_2","internal_consistency"
"454",0,100,2000,1,"subject","median",0.57868,0.4101,0.70438,107,34207,319.691588785047,1,0.666024143302181,"Stroop_2","internal_consistency"
"455",0.8,100,2000,1,"subject","median",0.57716,0.41376,0.70261,107,34207,319.691588785047,1,0.666024143302181,"Stroop_2","internal_consistency"
"456",0.9,100,2000,1,"subject","median",0.58197,0.43723,0.70651,107,34207,319.691588785047,1,0.666024143302181,"Stroop_2","internal_consistency"
"457",0,200,2000,1,"subject","median",0.60317,0.45147,0.72407,107,34108,318.766355140187,1,0.664096573208723,"Stroop_2","internal_consistency"
"458",0.8,200,2000,1,"subject","median",0.59594,0.4406,0.71674,107,34108,318.766355140187,1,0.664096573208723,"Stroop_2","internal_consistency"
"459",0.9,200,2000,1,"subject","median",0.601,0.45988,0.70927,107,34108,318.766355140187,1,0.664096573208723,"Stroop_2","internal_consistency"
"460",0,0,3000,1,"subject","median",0.62962,0.47774,0.73564,107,34920,326.355140186916,1,0.679906542056075,"Stroop_2","internal_consistency"
"461",0.8,0,3000,1,"subject","median",0.6242,0.46458,0.73439,107,34920,326.355140186916,1,0.679906542056075,"Stroop_2","internal_consistency"
"462",0.9,0,3000,1,"subject","median",0.63122,0.46878,0.74602,107,34920,326.355140186916,1,0.679906542056075,"Stroop_2","internal_consistency"
"463",0,100,3000,1,"subject","median",0.6071,0.46393,0.72008,107,34878,325.96261682243,1,0.679088785046729,"Stroop_2","internal_consistency"
"464",0.8,100,3000,1,"subject","median",0.60681,0.46367,0.72393,107,34878,325.96261682243,1,0.679088785046729,"Stroop_2","internal_consistency"
"465",0.9,100,3000,1,"subject","median",0.60236,0.44705,0.72164,107,34878,325.96261682243,1,0.679088785046729,"Stroop_2","internal_consistency"
"466",0,200,3000,1,"subject","median",0.61179,0.46195,0.71816,107,34801,325.242990654206,1,0.677589563862928,"Stroop_2","internal_consistency"
"467",0.8,200,3000,1,"subject","median",0.60996,0.46956,0.72077,107,34801,325.242990654206,1,0.677589563862928,"Stroop_2","internal_consistency"
"468",0.9,200,3000,1,"subject","median",0.61671,0.45961,0.73392,107,34801,325.242990654206,1,0.677589563862928,"Stroop_2","internal_consistency"
"469",0,0,2000,2,"subject","median",0.66067,0.53913,0.76487,107,43788,409.233644859813,1,0.852570093457944,"Stroop_2","internal_consistency"
"470",0.8,0,2000,2,"subject","median",0.65883,0.50467,0.76716,107,43788,409.233644859813,1,0.852570093457944,"Stroop_2","internal_consistency"
"471",0.9,0,2000,2,"subject","median",0.65843,0.51842,0.76944,107,43788,409.233644859813,1,0.852570093457944,"Stroop_2","internal_consistency"
"472",0,100,2000,2,"subject","median",0.62048,0.4803,0.72626,107,43667,408.102803738318,1,0.850214174454829,"Stroop_2","internal_consistency"
"473",0.8,100,2000,2,"subject","median",0.61866,0.47188,0.72146,107,43667,408.102803738318,1,0.850214174454829,"Stroop_2","internal_consistency"
"474",0.9,100,2000,2,"subject","median",0.61991,0.47977,0.72996,107,43667,408.102803738318,1,0.850214174454829,"Stroop_2","internal_consistency"
"475",0,200,2000,2,"subject","median",0.62512,0.50496,0.73331,107,43595,407.429906542056,1,0.84881230529595,"Stroop_2","internal_consistency"
"476",0.8,200,2000,2,"subject","median",0.62567,0.48553,0.73112,107,43595,407.429906542056,1,0.84881230529595,"Stroop_2","internal_consistency"
"477",0.9,200,2000,2,"subject","median",0.62441,0.47499,0.73816,107,43595,407.429906542056,1,0.84881230529595,"Stroop_2","internal_consistency"
"478",0,0,3000,2,"subject","median",0.65826,0.50394,0.75992,107,43954,410.785046728972,1,0.855802180685358,"Stroop_2","internal_consistency"
"479",0.8,0,3000,2,"subject","median",0.6643,0.52556,0.77089,107,43954,410.785046728972,1,0.855802180685358,"Stroop_2","internal_consistency"
"480",0.9,0,3000,2,"subject","median",0.6605,0.52102,0.76103,107,43954,410.785046728972,1,0.855802180685358,"Stroop_2","internal_consistency"
"481",0,100,3000,2,"subject","median",0.62303,0.49493,0.74083,107,43830,409.626168224299,1,0.85338785046729,"Stroop_2","internal_consistency"
"482",0.8,100,3000,2,"subject","median",0.62201,0.47647,0.73587,107,43830,409.626168224299,1,0.85338785046729,"Stroop_2","internal_consistency"
"483",0.9,100,3000,2,"subject","median",0.62623,0.48902,0.74044,107,43830,409.626168224299,1,0.85338785046729,"Stroop_2","internal_consistency"
"484",0,200,3000,2,"subject","median",0.63024,0.49451,0.73226,107,43753,408.906542056075,1,0.851888629283489,"Stroop_2","internal_consistency"
"485",0.8,200,3000,2,"subject","median",0.63551,0.51351,0.73252,107,43753,408.906542056075,1,0.851888629283489,"Stroop_2","internal_consistency"
"486",0.9,200,3000,2,"subject","median",0.6389,0.50319,0.74423,107,43753,408.906542056075,1,0.851888629283489,"Stroop_2","internal_consistency"
"487",0,0,2000,3,"subject","median",0.6651,0.51772,0.76774,107,45149,421.953271028037,1,0.879069314641745,"Stroop_2","internal_consistency"
"488",0.8,0,2000,3,"subject","median",0.66277,0.51857,0.76669,107,45149,421.953271028037,1,0.879069314641745,"Stroop_2","internal_consistency"
"489",0.9,0,2000,3,"subject","median",0.66268,0.51979,0.77184,107,45149,421.953271028037,1,0.879069314641745,"Stroop_2","internal_consistency"
"490",0,100,2000,3,"subject","median",0.64187,0.49843,0.74942,107,45016,420.710280373832,1,0.876479750778816,"Stroop_2","internal_consistency"
"491",0.8,100,2000,3,"subject","median",0.63846,0.49617,0.74656,107,45016,420.710280373832,1,0.876479750778816,"Stroop_2","internal_consistency"
"492",0.9,100,2000,3,"subject","median",0.64286,0.50879,0.74499,107,45016,420.710280373832,1,0.876479750778816,"Stroop_2","internal_consistency"
"493",0,200,2000,3,"subject","median",0.64553,0.52937,0.74646,107,44925,419.859813084112,1,0.874707943925234,"Stroop_2","internal_consistency"
"494",0.8,200,2000,3,"subject","median",0.64335,0.49856,0.73888,107,44925,419.859813084112,1,0.874707943925234,"Stroop_2","internal_consistency"
"495",0.9,200,2000,3,"subject","median",0.64999,0.51884,0.75471,107,44925,419.859813084112,1,0.874707943925234,"Stroop_2","internal_consistency"
"496",0,0,3000,3,"subject","median",0.66516,0.50297,0.76996,107,45220,422.616822429907,1,0.880451713395639,"Stroop_2","internal_consistency"
"497",0.8,0,3000,3,"subject","median",0.66585,0.48878,0.76117,107,45220,422.616822429907,1,0.880451713395639,"Stroop_2","internal_consistency"
"498",0.9,0,3000,3,"subject","median",0.66598,0.51439,0.77078,107,45220,422.616822429907,1,0.880451713395639,"Stroop_2","internal_consistency"
"499",0,100,3000,3,"subject","median",0.64081,0.50133,0.74619,107,45092,421.420560747664,1,0.877959501557632,"Stroop_2","internal_consistency"
"500",0.8,100,3000,3,"subject","median",0.63342,0.4908,0.74023,107,45092,421.420560747664,1,0.877959501557632,"Stroop_2","internal_consistency"
"501",0.9,100,3000,3,"subject","median",0.64193,0.49913,0.73892,107,45092,421.420560747664,1,0.877959501557632,"Stroop_2","internal_consistency"
"502",0,200,3000,3,"subject","median",0.64422,0.51999,0.74039,107,45003,420.588785046729,1,0.876226635514019,"Stroop_2","internal_consistency"
"503",0.8,200,3000,3,"subject","median",0.6455,0.50555,0.74689,107,45003,420.588785046729,1,0.876226635514019,"Stroop_2","internal_consistency"
"504",0.9,200,3000,3,"subject","median",0.6416,0.50034,0.75538,107,45003,420.588785046729,1,0.876226635514019,"Stroop_2","internal_consistency"
"505",0,0,2000,0,"trial","median",0.65767,0.50756,0.77045,107,45829,428.308411214953,1,0.892309190031153,"Stroop_2","internal_consistency"
"506",0.8,0,2000,0,"trial","median",0.65934,0.5115,0.75978,107,45829,428.308411214953,1,0.892309190031153,"Stroop_2","internal_consistency"
"507",0.9,0,2000,0,"trial","median",0.65531,0.5011,0.76309,107,45829,428.308411214953,1,0.892309190031153,"Stroop_2","internal_consistency"
"508",0,100,2000,0,"trial","median",0.63295,0.49845,0.74273,107,45701,427.11214953271,1,0.889816978193146,"Stroop_2","internal_consistency"
"509",0.8,100,2000,0,"trial","median",0.63751,0.50751,0.74507,107,45701,427.11214953271,1,0.889816978193146,"Stroop_2","internal_consistency"
"510",0.9,100,2000,0,"trial","median",0.63676,0.4923,0.75216,107,45701,427.11214953271,1,0.889816978193146,"Stroop_2","internal_consistency"
"511",0,200,2000,0,"trial","median",0.63473,0.49333,0.74098,107,45612,426.280373831776,1,0.888084112149533,"Stroop_2","internal_consistency"
"512",0.8,200,2000,0,"trial","median",0.63794,0.4923,0.75823,107,45612,426.280373831776,1,0.888084112149533,"Stroop_2","internal_consistency"
"513",0.9,200,2000,0,"trial","median",0.63292,0.48441,0.74737,107,45612,426.280373831776,1,0.888084112149533,"Stroop_2","internal_consistency"
"514",0,0,3000,0,"trial","median",0.67121,0.53358,0.7698,107,45915,429.11214953271,1,0.893983644859813,"Stroop_2","internal_consistency"
"515",0.8,0,3000,0,"trial","median",0.67328,0.53377,0.77588,107,45915,429.11214953271,1,0.893983644859813,"Stroop_2","internal_consistency"
"516",0.9,0,3000,0,"trial","median",0.66653,0.528,0.77009,107,45915,429.11214953271,1,0.893983644859813,"Stroop_2","internal_consistency"
"517",0,100,3000,0,"trial","median",0.64729,0.51622,0.75412,107,45787,427.915887850467,1,0.891491433021807,"Stroop_2","internal_consistency"
"518",0.8,100,3000,0,"trial","median",0.65254,0.50179,0.7588,107,45787,427.915887850467,1,0.891491433021807,"Stroop_2","internal_consistency"
"519",0.9,100,3000,0,"trial","median",0.65054,0.51407,0.76317,107,45787,427.915887850467,1,0.891491433021807,"Stroop_2","internal_consistency"
"520",0,200,3000,0,"trial","median",0.6422,0.48208,0.75693,107,45698,427.084112149533,1,0.889758566978193,"Stroop_2","internal_consistency"
"521",0.8,200,3000,0,"trial","median",0.64268,0.49836,0.7539,107,45698,427.084112149533,1,0.889758566978193,"Stroop_2","internal_consistency"
"522",0.9,200,3000,0,"trial","median",0.6486,0.52505,0.75808,107,45698,427.084112149533,1,0.889758566978193,"Stroop_2","internal_consistency"
"523",0,0,2000,1,"trial","median",0.79995,0.72017,0.85926,107,34164,319.289719626168,1,0.665186915887851,"Stroop_2","internal_consistency"
"524",0.8,0,2000,1,"trial","median",0.79949,0.72623,0.86123,107,34164,319.289719626168,1,0.665186915887851,"Stroop_2","internal_consistency"
"525",0.9,0,2000,1,"trial","median",0.79812,0.71463,0.85957,107,34164,319.289719626168,1,0.665186915887851,"Stroop_2","internal_consistency"
"526",0,100,2000,1,"trial","median",0.78623,0.70121,0.8504,107,34072,318.429906542056,1,0.663395638629284,"Stroop_2","internal_consistency"
"527",0.8,100,2000,1,"trial","median",0.78521,0.70412,0.85003,107,34072,318.429906542056,1,0.663395638629284,"Stroop_2","internal_consistency"
"528",0.9,100,2000,1,"trial","median",0.78549,0.71026,0.84981,107,34072,318.429906542056,1,0.663395638629284,"Stroop_2","internal_consistency"
"529",0,200,2000,1,"trial","median",0.79261,0.71871,0.85409,107,33967,317.448598130841,1,0.661351246105919,"Stroop_2","internal_consistency"
"530",0.8,200,2000,1,"trial","median",0.79657,0.72517,0.85635,107,33967,317.448598130841,1,0.661351246105919,"Stroop_2","internal_consistency"
"531",0.9,200,2000,1,"trial","median",0.79588,0.72873,0.85278,107,33967,317.448598130841,1,0.661351246105919,"Stroop_2","internal_consistency"
"532",0,0,3000,1,"trial","median",0.79104,0.69715,0.85583,107,34757,324.831775700935,1,0.676732866043614,"Stroop_2","internal_consistency"
"533",0.8,0,3000,1,"trial","median",0.78999,0.70902,0.85214,107,34757,324.831775700935,1,0.676732866043614,"Stroop_2","internal_consistency"
"534",0.9,0,3000,1,"trial","median",0.79174,0.70417,0.85752,107,34757,324.831775700935,1,0.676732866043614,"Stroop_2","internal_consistency"
"535",0,100,3000,1,"trial","median",0.77583,0.68303,0.8369,107,34674,324.056074766355,1,0.675116822429907,"Stroop_2","internal_consistency"
"536",0.8,100,3000,1,"trial","median",0.7777,0.69237,0.83658,107,34674,324.056074766355,1,0.675116822429907,"Stroop_2","internal_consistency"
"537",0.9,100,3000,1,"trial","median",0.77557,0.68669,0.83886,107,34674,324.056074766355,1,0.675116822429907,"Stroop_2","internal_consistency"
"538",0,200,3000,1,"trial","median",0.78974,0.70855,0.8535,107,34590,323.271028037383,1,0.673481308411215,"Stroop_2","internal_consistency"
"539",0.8,200,3000,1,"trial","median",0.78701,0.70689,0.84796,107,34590,323.271028037383,1,0.673481308411215,"Stroop_2","internal_consistency"
"540",0.9,200,3000,1,"trial","median",0.79019,0.70817,0.84896,107,34590,323.271028037383,1,0.673481308411215,"Stroop_2","internal_consistency"
"541",0,0,2000,2,"trial","median",0.68435,0.54839,0.7883,107,43846,409.775700934579,1,0.85369937694704,"Stroop_2","internal_consistency"
"542",0.8,0,2000,2,"trial","median",0.6844,0.56223,0.77914,107,43846,409.775700934579,1,0.85369937694704,"Stroop_2","internal_consistency"
"543",0.9,0,2000,2,"trial","median",0.6864,0.5372,0.78431,107,43846,409.775700934579,1,0.85369937694704,"Stroop_2","internal_consistency"
"544",0,100,2000,2,"trial","median",0.65375,0.50812,0.75674,107,43723,408.626168224299,1,0.851304517133956,"Stroop_2","internal_consistency"
"545",0.8,100,2000,2,"trial","median",0.65135,0.51445,0.75094,107,43723,408.626168224299,1,0.851304517133956,"Stroop_2","internal_consistency"
"546",0.9,100,2000,2,"trial","median",0.65421,0.52477,0.75687,107,43723,408.626168224299,1,0.851304517133956,"Stroop_2","internal_consistency"
"547",0,200,2000,2,"trial","median",0.66591,0.53379,0.76174,107,43648,407.92523364486,1,0.849844236760125,"Stroop_2","internal_consistency"
"548",0.8,200,2000,2,"trial","median",0.66138,0.55558,0.76025,107,43648,407.92523364486,1,0.849844236760125,"Stroop_2","internal_consistency"
"549",0.9,200,2000,2,"trial","median",0.66069,0.53797,0.76336,107,43648,407.92523364486,1,0.849844236760125,"Stroop_2","internal_consistency"
"550",0,0,3000,2,"trial","median",0.69018,0.56528,0.78812,107,43969,410.92523364486,1,0.856094236760125,"Stroop_2","internal_consistency"
"551",0.8,0,3000,2,"trial","median",0.68566,0.55201,0.78623,107,43969,410.92523364486,1,0.856094236760125,"Stroop_2","internal_consistency"
"552",0.9,0,3000,2,"trial","median",0.68343,0.54448,0.78831,107,43969,410.92523364486,1,0.856094236760125,"Stroop_2","internal_consistency"
"553",0,100,3000,2,"trial","median",0.65857,0.52161,0.7555,107,43854,409.85046728972,1,0.853855140186916,"Stroop_2","internal_consistency"
"554",0.8,100,3000,2,"trial","median",0.6601,0.52809,0.75711,107,43854,409.85046728972,1,0.853855140186916,"Stroop_2","internal_consistency"
"555",0.9,100,3000,2,"trial","median",0.65806,0.52914,0.75695,107,43854,409.85046728972,1,0.853855140186916,"Stroop_2","internal_consistency"
"556",0,200,3000,2,"trial","median",0.66293,0.5414,0.76284,107,43773,409.093457943925,1,0.852278037383178,"Stroop_2","internal_consistency"
"557",0.8,200,3000,2,"trial","median",0.66108,0.55029,0.75758,107,43773,409.093457943925,1,0.852278037383178,"Stroop_2","internal_consistency"
"558",0.9,200,3000,2,"trial","median",0.66556,0.53302,0.7622,107,43773,409.093457943925,1,0.852278037383178,"Stroop_2","internal_consistency"
"559",0,0,2000,3,"trial","median",0.66825,0.51561,0.78265,107,45120,421.682242990654,1,0.878504672897196,"Stroop_2","internal_consistency"
"560",0.8,0,2000,3,"trial","median",0.673,0.53847,0.77231,107,45120,421.682242990654,1,0.878504672897196,"Stroop_2","internal_consistency"
"561",0.9,0,2000,3,"trial","median",0.6682,0.52034,0.7821,107,45120,421.682242990654,1,0.878504672897196,"Stroop_2","internal_consistency"
"562",0,100,2000,3,"trial","median",0.64612,0.50301,0.75054,107,44990,420.467289719626,1,0.875973520249221,"Stroop_2","internal_consistency"
"563",0.8,100,2000,3,"trial","median",0.64915,0.51198,0.75597,107,44990,420.467289719626,1,0.875973520249221,"Stroop_2","internal_consistency"
"564",0.9,100,2000,3,"trial","median",0.65052,0.51956,0.75069,107,44990,420.467289719626,1,0.875973520249221,"Stroop_2","internal_consistency"
"565",0,200,2000,3,"trial","median",0.64821,0.51481,0.75535,107,44900,419.626168224299,1,0.874221183800623,"Stroop_2","internal_consistency"
"566",0.8,200,2000,3,"trial","median",0.64243,0.49668,0.74395,107,44900,419.626168224299,1,0.874221183800623,"Stroop_2","internal_consistency"
"567",0.9,200,2000,3,"trial","median",0.6499,0.51519,0.75978,107,44900,419.626168224299,1,0.874221183800623,"Stroop_2","internal_consistency"
"568",0,0,3000,3,"trial","median",0.67819,0.54013,0.77523,107,45189,422.327102803738,1,0.879848130841121,"Stroop_2","internal_consistency"
"569",0.8,0,3000,3,"trial","median",0.67344,0.53918,0.77947,107,45189,422.327102803738,1,0.879848130841121,"Stroop_2","internal_consistency"
"570",0.9,0,3000,3,"trial","median",0.67637,0.53569,0.77824,107,45189,422.327102803738,1,0.879848130841121,"Stroop_2","internal_consistency"
"571",0,100,3000,3,"trial","median",0.65548,0.52918,0.76905,107,45060,421.121495327103,1,0.877336448598131,"Stroop_2","internal_consistency"
"572",0.8,100,3000,3,"trial","median",0.65135,0.51698,0.74531,107,45060,421.121495327103,1,0.877336448598131,"Stroop_2","internal_consistency"
"573",0.9,100,3000,3,"trial","median",0.65349,0.5283,0.75498,107,45060,421.121495327103,1,0.877336448598131,"Stroop_2","internal_consistency"
"574",0,200,3000,3,"trial","median",0.64427,0.49497,0.74969,107,44973,420.308411214953,1,0.875642523364486,"Stroop_2","internal_consistency"
"575",0.8,200,3000,3,"trial","median",0.64254,0.50621,0.74883,107,44973,420.308411214953,1,0.875642523364486,"Stroop_2","internal_consistency"
"576",0.9,200,3000,3,"trial","median",0.64418,0.49933,0.75511,107,44973,420.308411214953,1,0.875642523364486,"Stroop_2","internal_consistency"
"577",0,0,2000,0,"subject","mean",0.72646,0.62762,0.8096,107,46135,431.168224299065,1,0.898267133956386,"Flanker_1","internal_consistency"
"578",0.8,0,2000,0,"subject","mean",0.73268,0.6507,0.81049,107,46135,431.168224299065,1,0.898267133956386,"Flanker_1","internal_consistency"
"579",0.9,0,2000,0,"subject","mean",0.73275,0.63826,0.8065,107,46135,431.168224299065,1,0.898267133956386,"Flanker_1","internal_consistency"
"580",0,100,2000,0,"subject","mean",0.71621,0.58244,0.79999,107,45876,428.747663551402,1,0.893224299065421,"Flanker_1","internal_consistency"
"581",0.8,100,2000,0,"subject","mean",0.71156,0.55978,0.80603,107,45876,428.747663551402,1,0.893224299065421,"Flanker_1","internal_consistency"
"582",0.9,100,2000,0,"subject","mean",0.71534,0.60323,0.80605,107,45876,428.747663551402,1,0.893224299065421,"Flanker_1","internal_consistency"
"583",0,200,2000,0,"subject","mean",0.65748,0.35446,0.79098,107,45715,427.242990654206,1,0.890089563862928,"Flanker_1","internal_consistency"
"584",0.8,200,2000,0,"subject","mean",0.64247,0.33719,0.78383,107,45715,427.242990654206,1,0.890089563862928,"Flanker_1","internal_consistency"
"585",0.9,200,2000,0,"subject","mean",0.65242,0.37964,0.78987,107,45715,427.242990654206,1,0.890089563862928,"Flanker_1","internal_consistency"
"586",0,0,3000,0,"subject","mean",0.70209,0.56495,0.79349,107,46174,431.532710280374,1,0.899026479750779,"Flanker_1","internal_consistency"
"587",0.8,0,3000,0,"subject","mean",0.7015,0.58872,0.79051,107,46174,431.532710280374,1,0.899026479750779,"Flanker_1","internal_consistency"
"588",0.9,0,3000,0,"subject","mean",0.70236,0.58217,0.79536,107,46174,431.532710280374,1,0.899026479750779,"Flanker_1","internal_consistency"
"589",0,100,3000,0,"subject","mean",0.67947,0.54319,0.78487,107,45915,429.11214953271,1,0.893983644859813,"Flanker_1","internal_consistency"
"590",0.8,100,3000,0,"subject","mean",0.68647,0.54184,0.79193,107,45915,429.11214953271,1,0.893983644859813,"Flanker_1","internal_consistency"
"591",0.9,100,3000,0,"subject","mean",0.68168,0.53661,0.78037,107,45915,429.11214953271,1,0.893983644859813,"Flanker_1","internal_consistency"
"592",0,200,3000,0,"subject","mean",0.63492,0.3746,0.77581,107,45754,427.607476635514,1,0.890848909657321,"Flanker_1","internal_consistency"
"593",0.8,200,3000,0,"subject","mean",0.62132,0.31373,0.75527,107,45754,427.607476635514,1,0.890848909657321,"Flanker_1","internal_consistency"
"594",0.9,200,3000,0,"subject","mean",0.63015,0.36549,0.77766,107,45754,427.607476635514,1,0.890848909657321,"Flanker_1","internal_consistency"
"595",0,0,2000,1,"subject","mean",0.86671,0.81891,0.90406,107,38007,355.205607476636,1,0.740011682242991,"Flanker_1","internal_consistency"
"596",0.8,0,2000,1,"subject","mean",0.8663,0.82226,0.90554,107,38007,355.205607476636,1,0.740011682242991,"Flanker_1","internal_consistency"
"597",0.9,0,2000,1,"subject","mean",0.86679,0.81429,0.90473,107,38007,355.205607476636,1,0.740011682242991,"Flanker_1","internal_consistency"
"598",0,100,2000,1,"subject","mean",0.86242,0.80464,0.90268,107,37782,353.102803738318,1,0.735630841121495,"Flanker_1","internal_consistency"
"599",0.8,100,2000,1,"subject","mean",0.86351,0.80839,0.90461,107,37782,353.102803738318,1,0.735630841121495,"Flanker_1","internal_consistency"
"600",0.9,100,2000,1,"subject","mean",0.86538,0.81174,0.90182,107,37782,353.102803738318,1,0.735630841121495,"Flanker_1","internal_consistency"
"601",0,200,2000,1,"subject","mean",0.85619,0.76858,0.90261,107,37677,352.121495327103,1,0.733586448598131,"Flanker_1","internal_consistency"
"602",0.8,200,2000,1,"subject","mean",0.85642,0.74626,0.90785,107,37677,352.121495327103,1,0.733586448598131,"Flanker_1","internal_consistency"
"603",0.9,200,2000,1,"subject","mean",0.85282,0.74037,0.90757,107,37677,352.121495327103,1,0.733586448598131,"Flanker_1","internal_consistency"
"604",0,0,3000,1,"subject","mean",0.86364,0.81013,0.90207,107,38829,362.88785046729,1,0.756016355140187,"Flanker_1","internal_consistency"
"605",0.8,0,3000,1,"subject","mean",0.85987,0.80052,0.90596,107,38829,362.88785046729,1,0.756016355140187,"Flanker_1","internal_consistency"
"606",0.9,0,3000,1,"subject","mean",0.86097,0.80252,0.90317,107,38829,362.88785046729,1,0.756016355140187,"Flanker_1","internal_consistency"
"607",0,100,3000,1,"subject","mean",0.8578,0.80292,0.8997,107,38617,360.906542056075,1,0.751888629283489,"Flanker_1","internal_consistency"
"608",0.8,100,3000,1,"subject","mean",0.85739,0.79623,0.90024,107,38617,360.906542056075,1,0.751888629283489,"Flanker_1","internal_consistency"
"609",0.9,100,3000,1,"subject","mean",0.85756,0.79364,0.90056,107,38617,360.906542056075,1,0.751888629283489,"Flanker_1","internal_consistency"
"610",0,200,3000,1,"subject","mean",0.85046,0.77135,0.90242,107,38519,359.990654205607,1,0.749980529595016,"Flanker_1","internal_consistency"
"611",0.8,200,3000,1,"subject","mean",0.84973,0.73399,0.90344,107,38519,359.990654205607,1,0.749980529595016,"Flanker_1","internal_consistency"
"612",0.9,200,3000,1,"subject","mean",0.84948,0.74232,0.90403,107,38519,359.990654205607,1,0.749980529595016,"Flanker_1","internal_consistency"
"613",0,0,2000,2,"subject","mean",0.83748,0.77717,0.88353,107,44466,415.570093457944,1,0.865771028037383,"Flanker_1","internal_consistency"
"614",0.8,0,2000,2,"subject","mean",0.83229,0.77114,0.88503,107,44466,415.570093457944,1,0.865771028037383,"Flanker_1","internal_consistency"
"615",0.9,0,2000,2,"subject","mean",0.83349,0.77331,0.88191,107,44466,415.570093457944,1,0.865771028037383,"Flanker_1","internal_consistency"
"616",0,100,2000,2,"subject","mean",0.82694,0.75575,0.87874,107,44220,413.271028037383,1,0.860981308411215,"Flanker_1","internal_consistency"
"617",0.8,100,2000,2,"subject","mean",0.82311,0.74465,0.87688,107,44220,413.271028037383,1,0.860981308411215,"Flanker_1","internal_consistency"
"618",0.9,100,2000,2,"subject","mean",0.82522,0.74821,0.87826,107,44220,413.271028037383,1,0.860981308411215,"Flanker_1","internal_consistency"
"619",0,200,2000,2,"subject","mean",0.80023,0.65901,0.87245,107,44097,412.121495327103,1,0.858586448598131,"Flanker_1","internal_consistency"
"620",0.8,200,2000,2,"subject","mean",0.80539,0.66854,0.87245,107,44097,412.121495327103,1,0.858586448598131,"Flanker_1","internal_consistency"
"621",0.9,200,2000,2,"subject","mean",0.79876,0.65576,0.87338,107,44097,412.121495327103,1,0.858586448598131,"Flanker_1","internal_consistency"
"622",0,0,3000,2,"subject","mean",0.82523,0.7573,0.87943,107,44645,417.242990654206,1,0.869256230529595,"Flanker_1","internal_consistency"
"623",0.8,0,3000,2,"subject","mean",0.82447,0.75462,0.87801,107,44645,417.242990654206,1,0.869256230529595,"Flanker_1","internal_consistency"
"624",0.9,0,3000,2,"subject","mean",0.8253,0.74921,0.87806,107,44645,417.242990654206,1,0.869256230529595,"Flanker_1","internal_consistency"
"625",0,100,3000,2,"subject","mean",0.82088,0.74685,0.87707,107,44402,414.971962616822,1,0.86452492211838,"Flanker_1","internal_consistency"
"626",0.8,100,3000,2,"subject","mean",0.82099,0.75094,0.87376,107,44402,414.971962616822,1,0.86452492211838,"Flanker_1","internal_consistency"
"627",0.9,100,3000,2,"subject","mean",0.82052,0.75243,0.87558,107,44402,414.971962616822,1,0.86452492211838,"Flanker_1","internal_consistency"
"628",0,200,3000,2,"subject","mean",0.79154,0.65636,0.86632,107,44259,413.635514018692,1,0.861740654205608,"Flanker_1","internal_consistency"
"629",0.8,200,3000,2,"subject","mean",0.79759,0.66189,0.87113,107,44259,413.635514018692,1,0.861740654205608,"Flanker_1","internal_consistency"
"630",0.9,200,3000,2,"subject","mean",0.79548,0.66311,0.86862,107,44259,413.635514018692,1,0.861740654205608,"Flanker_1","internal_consistency"
"631",0,0,2000,3,"subject","mean",0.8109,0.74031,0.86473,107,45428,424.560747663551,1,0.884501557632399,"Flanker_1","internal_consistency"
"632",0.8,0,2000,3,"subject","mean",0.81011,0.73657,0.86764,107,45428,424.560747663551,1,0.884501557632399,"Flanker_1","internal_consistency"
"633",0.9,0,2000,3,"subject","mean",0.81248,0.73908,0.87448,107,45428,424.560747663551,1,0.884501557632399,"Flanker_1","internal_consistency"
"634",0,100,2000,3,"subject","mean",0.80472,0.73167,0.86337,107,45170,422.14953271028,1,0.879478193146417,"Flanker_1","internal_consistency"
"635",0.8,100,2000,3,"subject","mean",0.7983,0.70415,0.85782,107,45170,422.14953271028,1,0.879478193146417,"Flanker_1","internal_consistency"
"636",0.9,100,2000,3,"subject","mean",0.80343,0.71944,0.86122,107,45170,422.14953271028,1,0.879478193146417,"Flanker_1","internal_consistency"
"637",0,200,2000,3,"subject","mean",0.77036,0.60162,0.85485,107,45007,420.626168224299,1,0.876304517133956,"Flanker_1","internal_consistency"
"638",0.8,200,2000,3,"subject","mean",0.77017,0.59366,0.85124,107,45007,420.626168224299,1,0.876304517133956,"Flanker_1","internal_consistency"
"639",0.9,200,2000,3,"subject","mean",0.77045,0.5786,0.84705,107,45007,420.626168224299,1,0.876304517133956,"Flanker_1","internal_consistency"
"640",0,0,3000,3,"subject","mean",0.8086,0.73491,0.86294,107,45520,425.420560747664,1,0.886292834890966,"Flanker_1","internal_consistency"
"641",0.8,0,3000,3,"subject","mean",0.80775,0.72486,0.86723,107,45520,425.420560747664,1,0.886292834890966,"Flanker_1","internal_consistency"
"642",0.9,0,3000,3,"subject","mean",0.8077,0.72999,0.86331,107,45520,425.420560747664,1,0.886292834890966,"Flanker_1","internal_consistency"
"643",0,100,3000,3,"subject","mean",0.79875,0.71429,0.86335,107,45263,423.018691588785,1,0.881288940809969,"Flanker_1","internal_consistency"
"644",0.8,100,3000,3,"subject","mean",0.7977,0.71745,0.86399,107,45263,423.018691588785,1,0.881288940809969,"Flanker_1","internal_consistency"
"645",0.9,100,3000,3,"subject","mean",0.7998,0.71899,0.86093,107,45263,423.018691588785,1,0.881288940809969,"Flanker_1","internal_consistency"
"646",0,200,3000,3,"subject","mean",0.77195,0.61421,0.856,107,45102,421.514018691589,1,0.878154205607477,"Flanker_1","internal_consistency"
"647",0.8,200,3000,3,"subject","mean",0.76874,0.60741,0.84438,107,45102,421.514018691589,1,0.878154205607477,"Flanker_1","internal_consistency"
"648",0.9,200,3000,3,"subject","mean",0.76212,0.57664,0.85736,107,45102,421.514018691589,1,0.878154205607477,"Flanker_1","internal_consistency"
"649",0,0,2000,0,"trial","mean",0.73215,0.63545,0.81068,107,46135,431.168224299065,1,0.898267133956386,"Flanker_1","internal_consistency"
"650",0.8,0,2000,0,"trial","mean",0.73548,0.64187,0.81169,107,46135,431.168224299065,1,0.898267133956386,"Flanker_1","internal_consistency"
"651",0.9,0,2000,0,"trial","mean",0.7285,0.63798,0.80365,107,46135,431.168224299065,1,0.898267133956386,"Flanker_1","internal_consistency"
"652",0,100,2000,0,"trial","mean",0.71296,0.57779,0.80211,107,45876,428.747663551402,1,0.893224299065421,"Flanker_1","internal_consistency"
"653",0.8,100,2000,0,"trial","mean",0.71816,0.5787,0.80767,107,45876,428.747663551402,1,0.893224299065421,"Flanker_1","internal_consistency"
"654",0.9,100,2000,0,"trial","mean",0.71867,0.59649,0.80895,107,45876,428.747663551402,1,0.893224299065421,"Flanker_1","internal_consistency"
"655",0,200,2000,0,"trial","mean",0.64854,0.3316,0.78958,107,45715,427.242990654206,1,0.890089563862928,"Flanker_1","internal_consistency"
"656",0.8,200,2000,0,"trial","mean",0.65654,0.36854,0.79545,107,45715,427.242990654206,1,0.890089563862928,"Flanker_1","internal_consistency"
"657",0.9,200,2000,0,"trial","mean",0.65818,0.32505,0.79063,107,45715,427.242990654206,1,0.890089563862928,"Flanker_1","internal_consistency"
"658",0,0,3000,0,"trial","mean",0.70478,0.5823,0.79591,107,46174,431.532710280374,1,0.899026479750779,"Flanker_1","internal_consistency"
"659",0.8,0,3000,0,"trial","mean",0.6999,0.57261,0.79031,107,46174,431.532710280374,1,0.899026479750779,"Flanker_1","internal_consistency"
"660",0.9,0,3000,0,"trial","mean",0.70153,0.58678,0.78806,107,46174,431.532710280374,1,0.899026479750779,"Flanker_1","internal_consistency"
"661",0,100,3000,0,"trial","mean",0.68447,0.53055,0.78102,107,45915,429.11214953271,1,0.893983644859813,"Flanker_1","internal_consistency"
"662",0.8,100,3000,0,"trial","mean",0.68316,0.53426,0.78547,107,45915,429.11214953271,1,0.893983644859813,"Flanker_1","internal_consistency"
"663",0.9,100,3000,0,"trial","mean",0.68543,0.538,0.78185,107,45915,429.11214953271,1,0.893983644859813,"Flanker_1","internal_consistency"
"664",0,200,3000,0,"trial","mean",0.6276,0.34584,0.76899,107,45754,427.607476635514,1,0.890848909657321,"Flanker_1","internal_consistency"
"665",0.8,200,3000,0,"trial","mean",0.62456,0.32356,0.76705,107,45754,427.607476635514,1,0.890848909657321,"Flanker_1","internal_consistency"
"666",0.9,200,3000,0,"trial","mean",0.6296,0.31376,0.7668,107,45754,427.607476635514,1,0.890848909657321,"Flanker_1","internal_consistency"
"667",0,0,2000,1,"trial","mean",0.92378,0.89261,0.94684,107,37761,352.906542056075,1,0.735221962616822,"Flanker_1","internal_consistency"
"668",0.8,0,2000,1,"trial","mean",0.92444,0.89355,0.94827,107,37761,352.906542056075,1,0.735221962616822,"Flanker_1","internal_consistency"
"669",0.9,0,2000,1,"trial","mean",0.92501,0.89459,0.94693,107,37761,352.906542056075,1,0.735221962616822,"Flanker_1","internal_consistency"
"670",0,100,2000,1,"trial","mean",0.92795,0.9021,0.94753,107,37554,350.971962616822,1,0.731191588785047,"Flanker_1","internal_consistency"
"671",0.8,100,2000,1,"trial","mean",0.92794,0.89992,0.94773,107,37554,350.971962616822,1,0.731191588785047,"Flanker_1","internal_consistency"
"672",0.9,100,2000,1,"trial","mean",0.92772,0.90038,0.94874,107,37554,350.971962616822,1,0.731191588785047,"Flanker_1","internal_consistency"
"673",0,200,2000,1,"trial","mean",0.92142,0.8715,0.94846,107,37416,349.682242990654,1,0.728504672897196,"Flanker_1","internal_consistency"
"674",0.8,200,2000,1,"trial","mean",0.92208,0.8719,0.95009,107,37416,349.682242990654,1,0.728504672897196,"Flanker_1","internal_consistency"
"675",0.9,200,2000,1,"trial","mean",0.92245,0.87263,0.94703,107,37416,349.682242990654,1,0.728504672897196,"Flanker_1","internal_consistency"
"676",0,0,3000,1,"trial","mean",0.91892,0.88636,0.94409,107,38406,358.934579439252,1,0.747780373831776,"Flanker_1","internal_consistency"
"677",0.8,0,3000,1,"trial","mean",0.91737,0.88416,0.94233,107,38406,358.934579439252,1,0.747780373831776,"Flanker_1","internal_consistency"
"678",0.9,0,3000,1,"trial","mean",0.91754,0.88241,0.93997,107,38406,358.934579439252,1,0.747780373831776,"Flanker_1","internal_consistency"
"679",0,100,3000,1,"trial","mean",0.9214,0.89195,0.94448,107,38202,357.028037383178,1,0.743808411214953,"Flanker_1","internal_consistency"
"680",0.8,100,3000,1,"trial","mean",0.922,0.89142,0.94514,107,38202,357.028037383178,1,0.743808411214953,"Flanker_1","internal_consistency"
"681",0.9,100,3000,1,"trial","mean",0.9226,0.89143,0.94433,107,38202,357.028037383178,1,0.743808411214953,"Flanker_1","internal_consistency"
"682",0,200,3000,1,"trial","mean",0.91662,0.86367,0.94604,107,38070,355.794392523364,1,0.741238317757009,"Flanker_1","internal_consistency"
"683",0.8,200,3000,1,"trial","mean",0.91546,0.85384,0.94413,107,38070,355.794392523364,1,0.741238317757009,"Flanker_1","internal_consistency"
"684",0.9,200,3000,1,"trial","mean",0.9157,0.85947,0.94514,107,38070,355.794392523364,1,0.741238317757009,"Flanker_1","internal_consistency"
"685",0,0,2000,2,"trial","mean",0.86875,0.81924,0.90753,107,44418,415.121495327103,1,0.864836448598131,"Flanker_1","internal_consistency"
"686",0.8,0,2000,2,"trial","mean",0.86964,0.82345,0.90718,107,44418,415.121495327103,1,0.864836448598131,"Flanker_1","internal_consistency"
"687",0.9,0,2000,2,"trial","mean",0.8689,0.8196,0.91046,107,44418,415.121495327103,1,0.864836448598131,"Flanker_1","internal_consistency"
"688",0,100,2000,2,"trial","mean",0.86229,0.80696,0.90344,107,44176,412.859813084112,1,0.8601246105919,"Flanker_1","internal_consistency"
"689",0.8,100,2000,2,"trial","mean",0.8619,0.80723,0.90328,107,44176,412.859813084112,1,0.8601246105919,"Flanker_1","internal_consistency"
"690",0.9,100,2000,2,"trial","mean",0.86169,0.80558,0.901,107,44176,412.859813084112,1,0.8601246105919,"Flanker_1","internal_consistency"
"691",0,200,2000,2,"trial","mean",0.84361,0.73085,0.8966,107,44043,411.616822429907,1,0.857535046728972,"Flanker_1","internal_consistency"
"692",0.8,200,2000,2,"trial","mean",0.84007,0.71351,0.89772,107,44043,411.616822429907,1,0.857535046728972,"Flanker_1","internal_consistency"
"693",0.9,200,2000,2,"trial","mean",0.84121,0.74179,0.89751,107,44043,411.616822429907,1,0.857535046728972,"Flanker_1","internal_consistency"
"694",0,0,3000,2,"trial","mean",0.85847,0.80645,0.89897,107,44560,416.448598130841,1,0.867601246105919,"Flanker_1","internal_consistency"
"695",0.8,0,3000,2,"trial","mean",0.85845,0.80204,0.90095,107,44560,416.448598130841,1,0.867601246105919,"Flanker_1","internal_consistency"
"696",0.9,0,3000,2,"trial","mean",0.8593,0.80896,0.90377,107,44560,416.448598130841,1,0.867601246105919,"Flanker_1","internal_consistency"
"697",0,100,3000,2,"trial","mean",0.85221,0.79399,0.89812,107,44319,414.196261682243,1,0.862908878504673,"Flanker_1","internal_consistency"
"698",0.8,100,3000,2,"trial","mean",0.85249,0.78576,0.89981,107,44319,414.196261682243,1,0.862908878504673,"Flanker_1","internal_consistency"
"699",0.9,100,3000,2,"trial","mean",0.8519,0.79224,0.89708,107,44319,414.196261682243,1,0.862908878504673,"Flanker_1","internal_consistency"
"700",0,200,3000,2,"trial","mean",0.82888,0.7296,0.8909,107,44176,412.859813084112,1,0.8601246105919,"Flanker_1","internal_consistency"
"701",0.8,200,3000,2,"trial","mean",0.82957,0.72644,0.88597,107,44176,412.859813084112,1,0.8601246105919,"Flanker_1","internal_consistency"
"702",0.9,200,3000,2,"trial","mean",0.83109,0.73177,0.88646,107,44176,412.859813084112,1,0.8601246105919,"Flanker_1","internal_consistency"
"703",0,0,2000,3,"trial","mean",0.83812,0.77022,0.88482,107,45387,424.177570093458,1,0.883703271028037,"Flanker_1","internal_consistency"
"704",0.8,0,2000,3,"trial","mean",0.83701,0.78027,0.8831,107,45387,424.177570093458,1,0.883703271028037,"Flanker_1","internal_consistency"
"705",0.9,0,2000,3,"trial","mean",0.8367,0.77401,0.88574,107,45387,424.177570093458,1,0.883703271028037,"Flanker_1","internal_consistency"
"706",0,100,2000,3,"trial","mean",0.83,0.76492,0.88177,107,45128,421.757009345794,1,0.878660436137072,"Flanker_1","internal_consistency"
"707",0.8,100,2000,3,"trial","mean",0.82883,0.76102,0.88055,107,45128,421.757009345794,1,0.878660436137072,"Flanker_1","internal_consistency"
"708",0.9,100,2000,3,"trial","mean",0.83072,0.7681,0.88457,107,45128,421.757009345794,1,0.878660436137072,"Flanker_1","internal_consistency"
