"","ACC_cutoff","RT_min","RT_max","RT_sd_cutoff","split_by","averaging_method","estimate","low","high","nPar","nTrial","nTrialperPar","pPar","pTrial","task","measure"
"1",0,0,2000,0,"subject","mean",0.57703,0.44641,0.69599,107,23529,219.897196261682,1,0.916238317757009,"Stroop_1","internal_consistency"
"2",0.8,0,2000,0,"subject","mean",0.57907,0.44002,0.69313,107,23529,219.897196261682,1,0.916238317757009,"Stroop_1","internal_consistency"
"3",0.9,0,2000,0,"subject","mean",0.58358,0.44052,0.68573,107,23529,219.897196261682,1,0.916238317757009,"Stroop_1","internal_consistency"
"4",0,100,2000,0,"subject","mean",0.57513,0.41659,0.70129,107,23506,219.682242990654,1,0.915342679127726,"Stroop_1","internal_consistency"
"5",0.8,100,2000,0,"subject","mean",0.5739,0.4205,0.69256,107,23506,219.682242990654,1,0.915342679127726,"Stroop_1","internal_consistency"
"6",0.9,100,2000,0,"subject","mean",0.57566,0.43238,0.69164,107,23506,219.682242990654,1,0.915342679127726,"Stroop_1","internal_consistency"
"7",0,200,2000,0,"subject","mean",0.56297,0.40169,0.68176,107,23488,219.514018691589,1,0.914641744548287,"Stroop_1","internal_consistency"
"8",0.8,200,2000,0,"subject","mean",0.55071,0.37791,0.68069,107,23488,219.514018691589,1,0.914641744548287,"Stroop_1","internal_consistency"
"9",0.9,200,2000,0,"subject","mean",0.5584,0.37315,0.69117,107,23488,219.514018691589,1,0.914641744548287,"Stroop_1","internal_consistency"
"10",0,0,3000,0,"subject","mean",0.56158,0.41719,0.68528,107,23619,220.738317757009,1,0.919742990654206,"Stroop_1","internal_consistency"
"11",0.8,0,3000,0,"subject","mean",0.57127,0.42481,0.69041,107,23619,220.738317757009,1,0.919742990654206,"Stroop_1","internal_consistency"
"12",0.9,0,3000,0,"subject","mean",0.56882,0.43161,0.69653,107,23619,220.738317757009,1,0.919742990654206,"Stroop_1","internal_consistency"
"13",0,100,3000,0,"subject","mean",0.56193,0.42935,0.68972,107,23596,220.523364485981,1,0.918847352024922,"Stroop_1","internal_consistency"
"14",0.8,100,3000,0,"subject","mean",0.56484,0.4146,0.69296,107,23596,220.523364485981,1,0.918847352024922,"Stroop_1","internal_consistency"
"15",0.9,100,3000,0,"subject","mean",0.56073,0.41377,0.6865,107,23596,220.523364485981,1,0.918847352024922,"Stroop_1","internal_consistency"
"16",0,200,3000,0,"subject","mean",0.54759,0.37023,0.67401,107,23578,220.355140186916,1,0.918146417445483,"Stroop_1","internal_consistency"
"17",0.8,200,3000,0,"subject","mean",0.55083,0.38736,0.68636,107,23578,220.355140186916,1,0.918146417445483,"Stroop_1","internal_consistency"
"18",0.9,200,3000,0,"subject","mean",0.55111,0.39836,0.67547,107,23578,220.355140186916,1,0.918146417445483,"Stroop_1","internal_consistency"
"19",0,0,2000,1,"subject","mean",0.4742,0.27959,0.61209,107,17535,163.878504672897,1,0.682827102803738,"Stroop_1","internal_consistency"
"20",0.8,0,2000,1,"subject","mean",0.47566,0.27564,0.62369,107,17535,163.878504672897,1,0.682827102803738,"Stroop_1","internal_consistency"
"21",0.9,0,2000,1,"subject","mean",0.47611,0.30282,0.63086,107,17535,163.878504672897,1,0.682827102803738,"Stroop_1","internal_consistency"
"22",0,100,2000,1,"subject","mean",0.50574,0.32919,0.64174,107,17508,163.626168224299,1,0.681775700934579,"Stroop_1","internal_consistency"
"23",0.8,100,2000,1,"subject","mean",0.49883,0.31558,0.65055,107,17508,163.626168224299,1,0.681775700934579,"Stroop_1","internal_consistency"
"24",0.9,100,2000,1,"subject","mean",0.50598,0.33822,0.63961,107,17508,163.626168224299,1,0.681775700934579,"Stroop_1","internal_consistency"
"25",0,200,2000,1,"subject","mean",0.56873,0.42084,0.69871,107,17487,163.429906542056,1,0.680957943925234,"Stroop_1","internal_consistency"
"26",0.8,200,2000,1,"subject","mean",0.56782,0.42118,0.68577,107,17487,163.429906542056,1,0.680957943925234,"Stroop_1","internal_consistency"
"27",0.9,200,2000,1,"subject","mean",0.56667,0.42307,0.69054,107,17487,163.429906542056,1,0.680957943925234,"Stroop_1","internal_consistency"
"28",0,0,3000,1,"subject","mean",0.60244,0.46257,0.72359,107,18157,169.691588785047,1,0.707048286604361,"Stroop_1","internal_consistency"
"29",0.8,0,3000,1,"subject","mean",0.60166,0.46561,0.71591,107,18157,169.691588785047,1,0.707048286604361,"Stroop_1","internal_consistency"
"30",0.9,0,3000,1,"subject","mean",0.60933,0.47873,0.72321,107,18157,169.691588785047,1,0.707048286604361,"Stroop_1","internal_consistency"
"31",0,100,3000,1,"subject","mean",0.61738,0.48913,0.72778,107,18133,169.467289719626,1,0.706113707165109,"Stroop_1","internal_consistency"
"32",0.8,100,3000,1,"subject","mean",0.61984,0.47131,0.72776,107,18133,169.467289719626,1,0.706113707165109,"Stroop_1","internal_consistency"
"33",0.9,100,3000,1,"subject","mean",0.61755,0.47428,0.72765,107,18133,169.467289719626,1,0.706113707165109,"Stroop_1","internal_consistency"
"34",0,200,3000,1,"subject","mean",0.6558,0.54757,0.74247,107,18115,169.299065420561,1,0.70541277258567,"Stroop_1","internal_consistency"
"35",0.8,200,3000,1,"subject","mean",0.6535,0.53449,0.74828,107,18115,169.299065420561,1,0.70541277258567,"Stroop_1","internal_consistency"
"36",0.9,200,3000,1,"subject","mean",0.65687,0.5378,0.75967,107,18115,169.299065420561,1,0.70541277258567,"Stroop_1","internal_consistency"
"37",0,0,2000,2,"subject","mean",0.61802,0.49724,0.72317,107,22443,209.747663551402,1,0.873948598130841,"Stroop_1","internal_consistency"
"38",0.8,0,2000,2,"subject","mean",0.62134,0.50396,0.72584,107,22443,209.747663551402,1,0.873948598130841,"Stroop_1","internal_consistency"
"39",0.9,0,2000,2,"subject","mean",0.62338,0.50307,0.72797,107,22443,209.747663551402,1,0.873948598130841,"Stroop_1","internal_consistency"
"40",0,100,2000,2,"subject","mean",0.64256,0.51336,0.73857,107,22422,209.551401869159,1,0.873130841121495,"Stroop_1","internal_consistency"
"41",0.8,100,2000,2,"subject","mean",0.64194,0.50953,0.73968,107,22422,209.551401869159,1,0.873130841121495,"Stroop_1","internal_consistency"
"42",0.9,100,2000,2,"subject","mean",0.63828,0.51042,0.74599,107,22422,209.551401869159,1,0.873130841121495,"Stroop_1","internal_consistency"
"43",0,200,2000,2,"subject","mean",0.60756,0.47915,0.7188,107,22406,209.401869158878,1,0.872507788161994,"Stroop_1","internal_consistency"
"44",0.8,200,2000,2,"subject","mean",0.61073,0.4771,0.72012,107,22406,209.401869158878,1,0.872507788161994,"Stroop_1","internal_consistency"
"45",0.9,200,2000,2,"subject","mean",0.61044,0.46913,0.72732,107,22406,209.401869158878,1,0.872507788161994,"Stroop_1","internal_consistency"
"46",0,0,3000,2,"subject","mean",0.60304,0.47156,0.71559,107,22606,211.271028037383,1,0.880295950155763,"Stroop_1","internal_consistency"
"47",0.8,0,3000,2,"subject","mean",0.60881,0.47957,0.71224,107,22606,211.271028037383,1,0.880295950155763,"Stroop_1","internal_consistency"
"48",0.9,0,3000,2,"subject","mean",0.60209,0.46715,0.71556,107,22606,211.271028037383,1,0.880295950155763,"Stroop_1","internal_consistency"
"49",0,100,3000,2,"subject","mean",0.6309,0.50992,0.7471,107,22585,211.07476635514,1,0.879478193146417,"Stroop_1","internal_consistency"
"50",0.8,100,3000,2,"subject","mean",0.62837,0.49659,0.74328,107,22585,211.07476635514,1,0.879478193146417,"Stroop_1","internal_consistency"
"51",0.9,100,3000,2,"subject","mean",0.62807,0.49619,0.73733,107,22585,211.07476635514,1,0.879478193146417,"Stroop_1","internal_consistency"
"52",0,200,3000,2,"subject","mean",0.59607,0.43736,0.70251,107,22569,210.92523364486,1,0.878855140186916,"Stroop_1","internal_consistency"
"53",0.8,200,3000,2,"subject","mean",0.59902,0.44961,0.72182,107,22569,210.92523364486,1,0.878855140186916,"Stroop_1","internal_consistency"
"54",0.9,200,3000,2,"subject","mean",0.59357,0.44905,0.71318,107,22569,210.92523364486,1,0.878855140186916,"Stroop_1","internal_consistency"
"55",0,0,2000,3,"subject","mean",0.61065,0.48522,0.72178,107,23174,216.579439252336,1,0.902414330218068,"Stroop_1","internal_consistency"
"56",0.8,0,2000,3,"subject","mean",0.61144,0.48558,0.71647,107,23174,216.579439252336,1,0.902414330218068,"Stroop_1","internal_consistency"
"57",0.9,0,2000,3,"subject","mean",0.6091,0.4797,0.71573,107,23174,216.579439252336,1,0.902414330218068,"Stroop_1","internal_consistency"
"58",0,100,2000,3,"subject","mean",0.61872,0.49377,0.72209,107,23151,216.364485981308,1,0.901518691588785,"Stroop_1","internal_consistency"
"59",0.8,100,2000,3,"subject","mean",0.61901,0.49287,0.72324,107,23151,216.364485981308,1,0.901518691588785,"Stroop_1","internal_consistency"
"60",0.9,100,2000,3,"subject","mean",0.61789,0.47329,0.73138,107,23151,216.364485981308,1,0.901518691588785,"Stroop_1","internal_consistency"
"61",0,200,2000,3,"subject","mean",0.59765,0.45558,0.70932,107,23133,216.196261682243,1,0.900817757009346,"Stroop_1","internal_consistency"
"62",0.8,200,2000,3,"subject","mean",0.60174,0.45256,0.70911,107,23133,216.196261682243,1,0.900817757009346,"Stroop_1","internal_consistency"
"63",0.9,200,2000,3,"subject","mean",0.59929,0.45949,0.71496,107,23133,216.196261682243,1,0.900817757009346,"Stroop_1","internal_consistency"
"64",0,0,3000,3,"subject","mean",0.60358,0.47157,0.70234,107,23242,217.214953271028,1,0.90506230529595,"Stroop_1","internal_consistency"
"65",0.8,0,3000,3,"subject","mean",0.60459,0.48274,0.71421,107,23242,217.214953271028,1,0.90506230529595,"Stroop_1","internal_consistency"
"66",0.9,0,3000,3,"subject","mean",0.60082,0.4755,0.70518,107,23242,217.214953271028,1,0.90506230529595,"Stroop_1","internal_consistency"
"67",0,100,3000,3,"subject","mean",0.60239,0.46543,0.71948,107,23219,217,1,0.904166666666667,"Stroop_1","internal_consistency"
"68",0.8,100,3000,3,"subject","mean",0.61078,0.48893,0.71643,107,23219,217,1,0.904166666666667,"Stroop_1","internal_consistency"
"69",0.9,100,3000,3,"subject","mean",0.60706,0.459,0.72524,107,23219,217,1,0.904166666666667,"Stroop_1","internal_consistency"
"70",0,200,3000,3,"subject","mean",0.5932,0.44448,0.70331,107,23201,216.831775700935,1,0.903465732087227,"Stroop_1","internal_consistency"
"71",0.8,200,3000,3,"subject","mean",0.58802,0.41766,0.71508,107,23201,216.831775700935,1,0.903465732087227,"Stroop_1","internal_consistency"
"72",0.9,200,3000,3,"subject","mean",0.59444,0.45239,0.70636,107,23201,216.831775700935,1,0.903465732087227,"Stroop_1","internal_consistency"
"73",0,0,2000,0,"trial","mean",0.57812,0.44852,0.7027,107,23529,219.897196261682,1,0.916238317757009,"Stroop_1","internal_consistency"
"74",0.8,0,2000,0,"trial","mean",0.57736,0.44396,0.69324,107,23529,219.897196261682,1,0.916238317757009,"Stroop_1","internal_consistency"
"75",0.9,0,2000,0,"trial","mean",0.58003,0.44149,0.68825,107,23529,219.897196261682,1,0.916238317757009,"Stroop_1","internal_consistency"
"76",0,100,2000,0,"trial","mean",0.57796,0.44403,0.69739,107,23506,219.682242990654,1,0.915342679127726,"Stroop_1","internal_consistency"
"77",0.8,100,2000,0,"trial","mean",0.57781,0.42327,0.69568,107,23506,219.682242990654,1,0.915342679127726,"Stroop_1","internal_consistency"
"78",0.9,100,2000,0,"trial","mean",0.57513,0.42944,0.69076,107,23506,219.682242990654,1,0.915342679127726,"Stroop_1","internal_consistency"
"79",0,200,2000,0,"trial","mean",0.5636,0.39581,0.69195,107,23488,219.514018691589,1,0.914641744548287,"Stroop_1","internal_consistency"
"80",0.8,200,2000,0,"trial","mean",0.56365,0.38054,0.68941,107,23488,219.514018691589,1,0.914641744548287,"Stroop_1","internal_consistency"
"81",0.9,200,2000,0,"trial","mean",0.56095,0.38075,0.68321,107,23488,219.514018691589,1,0.914641744548287,"Stroop_1","internal_consistency"
"82",0,0,3000,0,"trial","mean",0.56515,0.40679,0.68391,107,23619,220.738317757009,1,0.919742990654206,"Stroop_1","internal_consistency"
"83",0.8,0,3000,0,"trial","mean",0.57023,0.40824,0.69226,107,23619,220.738317757009,1,0.919742990654206,"Stroop_1","internal_consistency"
"84",0.9,0,3000,0,"trial","mean",0.56468,0.41184,0.68684,107,23619,220.738317757009,1,0.919742990654206,"Stroop_1","internal_consistency"
"85",0,100,3000,0,"trial","mean",0.56866,0.43882,0.68474,107,23596,220.523364485981,1,0.918847352024922,"Stroop_1","internal_consistency"
"86",0.8,100,3000,0,"trial","mean",0.56395,0.43239,0.69335,107,23596,220.523364485981,1,0.918847352024922,"Stroop_1","internal_consistency"
"87",0.9,100,3000,0,"trial","mean",0.56307,0.39868,0.68917,107,23596,220.523364485981,1,0.918847352024922,"Stroop_1","internal_consistency"
"88",0,200,3000,0,"trial","mean",0.54792,0.36637,0.67452,107,23578,220.355140186916,1,0.918146417445483,"Stroop_1","internal_consistency"
"89",0.8,200,3000,0,"trial","mean",0.55037,0.38795,0.68229,107,23578,220.355140186916,1,0.918146417445483,"Stroop_1","internal_consistency"
"90",0.9,200,3000,0,"trial","mean",0.54806,0.37598,0.67729,107,23578,220.355140186916,1,0.918146417445483,"Stroop_1","internal_consistency"
"91",0,0,2000,1,"trial","mean",0.86008,0.81127,0.89802,107,17516,163.700934579439,1,0.68208722741433,"Stroop_1","internal_consistency"
"92",0.8,0,2000,1,"trial","mean",0.86088,0.81369,0.90386,107,17516,163.700934579439,1,0.68208722741433,"Stroop_1","internal_consistency"
"93",0.9,0,2000,1,"trial","mean",0.85852,0.80714,0.89779,107,17516,163.700934579439,1,0.68208722741433,"Stroop_1","internal_consistency"
"94",0,100,2000,1,"trial","mean",0.87825,0.83974,0.91238,107,17495,163.504672897196,1,0.681269470404984,"Stroop_1","internal_consistency"
"95",0.8,100,2000,1,"trial","mean",0.87745,0.82967,0.91041,107,17495,163.504672897196,1,0.681269470404984,"Stroop_1","internal_consistency"
"96",0.9,100,2000,1,"trial","mean",0.87821,0.83214,0.90995,107,17495,163.504672897196,1,0.681269470404984,"Stroop_1","internal_consistency"
"97",0,200,2000,1,"trial","mean",0.86361,0.82113,0.90293,107,17481,163.373831775701,1,0.680724299065421,"Stroop_1","internal_consistency"
"98",0.8,200,2000,1,"trial","mean",0.86456,0.81798,0.90362,107,17481,163.373831775701,1,0.680724299065421,"Stroop_1","internal_consistency"
"99",0.9,200,2000,1,"trial","mean",0.86475,0.81667,0.90117,107,17481,163.373831775701,1,0.680724299065421,"Stroop_1","internal_consistency"
"100",0,0,3000,1,"trial","mean",0.86119,0.81215,0.90159,107,17979,168.028037383178,1,0.700116822429907,"Stroop_1","internal_consistency"
"101",0.8,0,3000,1,"trial","mean",0.8591,0.81329,0.89835,107,17979,168.028037383178,1,0.700116822429907,"Stroop_1","internal_consistency"
"102",0.9,0,3000,1,"trial","mean",0.8609,0.81562,0.89714,107,17979,168.028037383178,1,0.700116822429907,"Stroop_1","internal_consistency"
"103",0,100,3000,1,"trial","mean",0.87788,0.83991,0.91209,107,17958,167.831775700935,1,0.699299065420561,"Stroop_1","internal_consistency"
"104",0.8,100,3000,1,"trial","mean",0.87654,0.83638,0.90883,107,17958,167.831775700935,1,0.699299065420561,"Stroop_1","internal_consistency"
"105",0.9,100,3000,1,"trial","mean",0.87537,0.83406,0.9109,107,17958,167.831775700935,1,0.699299065420561,"Stroop_1","internal_consistency"
"106",0,200,3000,1,"trial","mean",0.86456,0.81501,0.9049,107,17944,167.700934579439,1,0.698753894080997,"Stroop_1","internal_consistency"
"107",0.8,200,3000,1,"trial","mean",0.86344,0.81118,0.9028,107,17944,167.700934579439,1,0.698753894080997,"Stroop_1","internal_consistency"
"108",0.9,200,3000,1,"trial","mean",0.86418,0.81298,0.9047,107,17944,167.700934579439,1,0.698753894080997,"Stroop_1","internal_consistency"
"109",0,0,2000,2,"trial","mean",0.74066,0.65741,0.81136,107,22472,210.018691588785,1,0.875077881619938,"Stroop_1","internal_consistency"
"110",0.8,0,2000,2,"trial","mean",0.73759,0.65241,0.80801,107,22472,210.018691588785,1,0.875077881619938,"Stroop_1","internal_consistency"
"111",0.9,0,2000,2,"trial","mean",0.73906,0.65255,0.80828,107,22472,210.018691588785,1,0.875077881619938,"Stroop_1","internal_consistency"
"112",0,100,2000,2,"trial","mean",0.7363,0.64708,0.81427,107,22451,209.822429906542,1,0.874260124610592,"Stroop_1","internal_consistency"
"113",0.8,100,2000,2,"trial","mean",0.73374,0.65026,0.80871,107,22451,209.822429906542,1,0.874260124610592,"Stroop_1","internal_consistency"
"114",0.9,100,2000,2,"trial","mean",0.73368,0.63813,0.80907,107,22451,209.822429906542,1,0.874260124610592,"Stroop_1","internal_consistency"
"115",0,200,2000,2,"trial","mean",0.71374,0.60221,0.79999,107,22435,209.672897196262,1,0.87363707165109,"Stroop_1","internal_consistency"
"116",0.8,200,2000,2,"trial","mean",0.72041,0.61578,0.80501,107,22435,209.672897196262,1,0.87363707165109,"Stroop_1","internal_consistency"
"117",0.9,200,2000,2,"trial","mean",0.71773,0.60961,0.79992,107,22435,209.672897196262,1,0.87363707165109,"Stroop_1","internal_consistency"
"118",0,0,3000,2,"trial","mean",0.73797,0.6488,0.80984,107,22582,211.046728971963,1,0.879361370716511,"Stroop_1","internal_consistency"
"119",0.8,0,3000,2,"trial","mean",0.73196,0.64384,0.81049,107,22582,211.046728971963,1,0.879361370716511,"Stroop_1","internal_consistency"
"120",0.9,0,3000,2,"trial","mean",0.73668,0.65346,0.80654,107,22582,211.046728971963,1,0.879361370716511,"Stroop_1","internal_consistency"
"121",0,100,3000,2,"trial","mean",0.73323,0.64198,0.80875,107,22561,210.85046728972,1,0.878543613707165,"Stroop_1","internal_consistency"
"122",0.8,100,3000,2,"trial","mean",0.72951,0.64118,0.80486,107,22561,210.85046728972,1,0.878543613707165,"Stroop_1","internal_consistency"
"123",0.9,100,3000,2,"trial","mean",0.73577,0.6403,0.80936,107,22561,210.85046728972,1,0.878543613707165,"Stroop_1","internal_consistency"
"124",0,200,3000,2,"trial","mean",0.71381,0.61093,0.79591,107,22545,210.700934579439,1,0.877920560747664,"Stroop_1","internal_consistency"
"125",0.8,200,3000,2,"trial","mean",0.71456,0.61158,0.80128,107,22545,210.700934579439,1,0.877920560747664,"Stroop_1","internal_consistency"
"126",0.9,200,3000,2,"trial","mean",0.71403,0.61236,0.80462,107,22545,210.700934579439,1,0.877920560747664,"Stroop_1","internal_consistency"
"127",0,0,2000,3,"trial","mean",0.68435,0.57954,0.76696,107,23183,216.663551401869,1,0.902764797507788,"Stroop_1","internal_consistency"
"128",0.8,0,2000,3,"trial","mean",0.68784,0.56843,0.77352,107,23183,216.663551401869,1,0.902764797507788,"Stroop_1","internal_consistency"
"129",0.9,0,2000,3,"trial","mean",0.68577,0.58427,0.77496,107,23183,216.663551401869,1,0.902764797507788,"Stroop_1","internal_consistency"
"130",0,100,2000,3,"trial","mean",0.69078,0.58859,0.77161,107,23160,216.448598130841,1,0.901869158878505,"Stroop_1","internal_consistency"
"131",0.8,100,2000,3,"trial","mean",0.69086,0.58159,0.77881,107,23160,216.448598130841,1,0.901869158878505,"Stroop_1","internal_consistency"
"132",0.9,100,2000,3,"trial","mean",0.69143,0.60267,0.77837,107,23160,216.448598130841,1,0.901869158878505,"Stroop_1","internal_consistency"
"133",0,200,2000,3,"trial","mean",0.67577,0.55399,0.77196,107,23141,216.271028037383,1,0.901129283489097,"Stroop_1","internal_consistency"
"134",0.8,200,2000,3,"trial","mean",0.67778,0.56729,0.76722,107,23141,216.271028037383,1,0.901129283489097,"Stroop_1","internal_consistency"
"135",0.9,200,2000,3,"trial","mean",0.67966,0.57195,0.76237,107,23141,216.271028037383,1,0.901129283489097,"Stroop_1","internal_consistency"
"136",0,0,3000,3,"trial","mean",0.67993,0.57172,0.76879,107,23249,217.280373831776,1,0.905334890965732,"Stroop_1","internal_consistency"
"137",0.8,0,3000,3,"trial","mean",0.67948,0.57392,0.76912,107,23249,217.280373831776,1,0.905334890965732,"Stroop_1","internal_consistency"
"138",0.9,0,3000,3,"trial","mean",0.67896,0.57923,0.76462,107,23249,217.280373831776,1,0.905334890965732,"Stroop_1","internal_consistency"
"139",0,100,3000,3,"trial","mean",0.68037,0.56984,0.7653,107,23226,217.065420560748,1,0.904439252336449,"Stroop_1","internal_consistency"
"140",0.8,100,3000,3,"trial","mean",0.68348,0.56763,0.78177,107,23226,217.065420560748,1,0.904439252336449,"Stroop_1","internal_consistency"
"141",0.9,100,3000,3,"trial","mean",0.68768,0.58139,0.77464,107,23226,217.065420560748,1,0.904439252336449,"Stroop_1","internal_consistency"
"142",0,200,3000,3,"trial","mean",0.67293,0.55673,0.76587,107,23207,216.88785046729,1,0.903699376947041,"Stroop_1","internal_consistency"
"143",0.8,200,3000,3,"trial","mean",0.6759,0.54979,0.76652,107,23207,216.88785046729,1,0.903699376947041,"Stroop_1","internal_consistency"
"144",0.9,200,3000,3,"trial","mean",0.66941,0.53942,0.7699,107,23207,216.88785046729,1,0.903699376947041,"Stroop_1","internal_consistency"
"145",0,0,2000,0,"subject","median",0.59606,0.45228,0.71459,107,23529,219.897196261682,1,0.916238317757009,"Stroop_1","internal_consistency"
"146",0.8,0,2000,0,"subject","median",0.60171,0.44751,0.7216,107,23529,219.897196261682,1,0.916238317757009,"Stroop_1","internal_consistency"
"147",0.9,0,2000,0,"subject","median",0.59891,0.44711,0.71461,107,23529,219.897196261682,1,0.916238317757009,"Stroop_1","internal_consistency"
"148",0,100,2000,0,"subject","median",0.62948,0.4761,0.75112,107,23506,219.682242990654,1,0.915342679127726,"Stroop_1","internal_consistency"
"149",0.8,100,2000,0,"subject","median",0.62922,0.46997,0.74722,107,23506,219.682242990654,1,0.915342679127726,"Stroop_1","internal_consistency"
"150",0.9,100,2000,0,"subject","median",0.63517,0.48256,0.74712,107,23506,219.682242990654,1,0.915342679127726,"Stroop_1","internal_consistency"
"151",0,200,2000,0,"subject","median",0.63045,0.50281,0.73217,107,23488,219.514018691589,1,0.914641744548287,"Stroop_1","internal_consistency"
"152",0.8,200,2000,0,"subject","median",0.62949,0.49358,0.73415,107,23488,219.514018691589,1,0.914641744548287,"Stroop_1","internal_consistency"
"153",0.9,200,2000,0,"subject","median",0.62336,0.48379,0.73005,107,23488,219.514018691589,1,0.914641744548287,"Stroop_1","internal_consistency"
"154",0,0,3000,0,"subject","median",0.61333,0.4603,0.73531,107,23619,220.738317757009,1,0.919742990654206,"Stroop_1","internal_consistency"
"155",0.8,0,3000,0,"subject","median",0.61559,0.47026,0.73158,107,23619,220.738317757009,1,0.919742990654206,"Stroop_1","internal_consistency"
"156",0.9,0,3000,0,"subject","median",0.61184,0.49078,0.73031,107,23619,220.738317757009,1,0.919742990654206,"Stroop_1","internal_consistency"
"157",0,100,3000,0,"subject","median",0.64924,0.51947,0.7581,107,23596,220.523364485981,1,0.918847352024922,"Stroop_1","internal_consistency"
"158",0.8,100,3000,0,"subject","median",0.64565,0.47416,0.75049,107,23596,220.523364485981,1,0.918847352024922,"Stroop_1","internal_consistency"
"159",0.9,100,3000,0,"subject","median",0.64684,0.49516,0.76086,107,23596,220.523364485981,1,0.918847352024922,"Stroop_1","internal_consistency"
"160",0,200,3000,0,"subject","median",0.64181,0.51623,0.73989,107,23578,220.355140186916,1,0.918146417445483,"Stroop_1","internal_consistency"
"161",0.8,200,3000,0,"subject","median",0.64487,0.51329,0.75126,107,23578,220.355140186916,1,0.918146417445483,"Stroop_1","internal_consistency"
"162",0.9,200,3000,0,"subject","median",0.64314,0.51369,0.75035,107,23578,220.355140186916,1,0.918146417445483,"Stroop_1","internal_consistency"
"163",0,0,2000,1,"subject","median",0.42206,0.20574,0.59101,107,17535,163.878504672897,1,0.682827102803738,"Stroop_1","internal_consistency"
"164",0.8,0,2000,1,"subject","median",0.41742,0.21339,0.58642,107,17535,163.878504672897,1,0.682827102803738,"Stroop_1","internal_consistency"
"165",0.9,0,2000,1,"subject","median",0.42263,0.19799,0.58382,107,17535,163.878504672897,1,0.682827102803738,"Stroop_1","internal_consistency"
"166",0,100,2000,1,"subject","median",0.46165,0.20771,0.65051,107,17508,163.626168224299,1,0.681775700934579,"Stroop_1","internal_consistency"
"167",0.8,100,2000,1,"subject","median",0.46509,0.21505,0.64012,107,17508,163.626168224299,1,0.681775700934579,"Stroop_1","internal_consistency"
"168",0.9,100,2000,1,"subject","median",0.46401,0.16375,0.64397,107,17508,163.626168224299,1,0.681775700934579,"Stroop_1","internal_consistency"
"169",0,200,2000,1,"subject","median",0.51732,0.33323,0.65499,107,17487,163.429906542056,1,0.680957943925234,"Stroop_1","internal_consistency"
"170",0.8,200,2000,1,"subject","median",0.51377,0.31573,0.64982,107,17487,163.429906542056,1,0.680957943925234,"Stroop_1","internal_consistency"
"171",0.9,200,2000,1,"subject","median",0.51373,0.33776,0.65702,107,17487,163.429906542056,1,0.680957943925234,"Stroop_1","internal_consistency"
"172",0,0,3000,1,"subject","median",0.55798,0.38759,0.68469,107,18157,169.691588785047,1,0.707048286604361,"Stroop_1","internal_consistency"
"173",0.8,0,3000,1,"subject","median",0.55493,0.3951,0.67986,107,18157,169.691588785047,1,0.707048286604361,"Stroop_1","internal_consistency"
"174",0.9,0,3000,1,"subject","median",0.55325,0.389,0.68945,107,18157,169.691588785047,1,0.707048286604361,"Stroop_1","internal_consistency"
"175",0,100,3000,1,"subject","median",0.58146,0.37577,0.72148,107,18133,169.467289719626,1,0.706113707165109,"Stroop_1","internal_consistency"
"176",0.8,100,3000,1,"subject","median",0.57466,0.35983,0.71672,107,18133,169.467289719626,1,0.706113707165109,"Stroop_1","internal_consistency"
"177",0.9,100,3000,1,"subject","median",0.57703,0.38921,0.70874,107,18133,169.467289719626,1,0.706113707165109,"Stroop_1","internal_consistency"
"178",0,200,3000,1,"subject","median",0.61263,0.47838,0.71683,107,18115,169.299065420561,1,0.70541277258567,"Stroop_1","internal_consistency"
"179",0.8,200,3000,1,"subject","median",0.61111,0.46073,0.71739,107,18115,169.299065420561,1,0.70541277258567,"Stroop_1","internal_consistency"
"180",0.9,200,3000,1,"subject","median",0.61796,0.4869,0.72437,107,18115,169.299065420561,1,0.70541277258567,"Stroop_1","internal_consistency"
"181",0,0,2000,2,"subject","median",0.57049,0.4249,0.68681,107,22443,209.747663551402,1,0.873948598130841,"Stroop_1","internal_consistency"
"182",0.8,0,2000,2,"subject","median",0.5683,0.41564,0.68399,107,22443,209.747663551402,1,0.873948598130841,"Stroop_1","internal_consistency"
"183",0.9,0,2000,2,"subject","median",0.56667,0.41347,0.69116,107,22443,209.747663551402,1,0.873948598130841,"Stroop_1","internal_consistency"
"184",0,100,2000,2,"subject","median",0.62214,0.46995,0.74037,107,22422,209.551401869159,1,0.873130841121495,"Stroop_1","internal_consistency"
"185",0.8,100,2000,2,"subject","median",0.62088,0.44816,0.74335,107,22422,209.551401869159,1,0.873130841121495,"Stroop_1","internal_consistency"
"186",0.9,100,2000,2,"subject","median",0.62802,0.46489,0.74091,107,22422,209.551401869159,1,0.873130841121495,"Stroop_1","internal_consistency"
"187",0,200,2000,2,"subject","median",0.60992,0.46862,0.71961,107,22406,209.401869158878,1,0.872507788161994,"Stroop_1","internal_consistency"
"188",0.8,200,2000,2,"subject","median",0.61151,0.45815,0.72068,107,22406,209.401869158878,1,0.872507788161994,"Stroop_1","internal_consistency"
"189",0.9,200,2000,2,"subject","median",0.60758,0.46803,0.727,107,22406,209.401869158878,1,0.872507788161994,"Stroop_1","internal_consistency"
"190",0,0,3000,2,"subject","median",0.58126,0.43829,0.69231,107,22606,211.271028037383,1,0.880295950155763,"Stroop_1","internal_consistency"
"191",0.8,0,3000,2,"subject","median",0.57727,0.40986,0.69533,107,22606,211.271028037383,1,0.880295950155763,"Stroop_1","internal_consistency"
"192",0.9,0,3000,2,"subject","median",0.57979,0.44459,0.69394,107,22606,211.271028037383,1,0.880295950155763,"Stroop_1","internal_consistency"
"193",0,100,3000,2,"subject","median",0.63187,0.46735,0.74674,107,22585,211.07476635514,1,0.879478193146417,"Stroop_1","internal_consistency"
"194",0.8,100,3000,2,"subject","median",0.63643,0.47284,0.75489,107,22585,211.07476635514,1,0.879478193146417,"Stroop_1","internal_consistency"
"195",0.9,100,3000,2,"subject","median",0.63071,0.48387,0.74237,107,22585,211.07476635514,1,0.879478193146417,"Stroop_1","internal_consistency"
"196",0,200,3000,2,"subject","median",0.6227,0.49129,0.73399,107,22569,210.92523364486,1,0.878855140186916,"Stroop_1","internal_consistency"
"197",0.8,200,3000,2,"subject","median",0.61798,0.46605,0.73191,107,22569,210.92523364486,1,0.878855140186916,"Stroop_1","internal_consistency"
"198",0.9,200,3000,2,"subject","median",0.62486,0.49055,0.73128,107,22569,210.92523364486,1,0.878855140186916,"Stroop_1","internal_consistency"
"199",0,0,2000,3,"subject","median",0.59593,0.44689,0.71313,107,23174,216.579439252336,1,0.902414330218068,"Stroop_1","internal_consistency"
"200",0.8,0,2000,3,"subject","median",0.60088,0.45312,0.71432,107,23174,216.579439252336,1,0.902414330218068,"Stroop_1","internal_consistency"
"201",0.9,0,2000,3,"subject","median",0.60059,0.46359,0.7097,107,23174,216.579439252336,1,0.902414330218068,"Stroop_1","internal_consistency"
"202",0,100,2000,3,"subject","median",0.63437,0.4796,0.74923,107,23151,216.364485981308,1,0.901518691588785,"Stroop_1","internal_consistency"
"203",0.8,100,2000,3,"subject","median",0.63005,0.46979,0.74632,107,23151,216.364485981308,1,0.901518691588785,"Stroop_1","internal_consistency"
"204",0.9,100,2000,3,"subject","median",0.63454,0.48102,0.74899,107,23151,216.364485981308,1,0.901518691588785,"Stroop_1","internal_consistency"
"205",0,200,2000,3,"subject","median",0.63131,0.49984,0.74503,107,23133,216.196261682243,1,0.900817757009346,"Stroop_1","internal_consistency"
"206",0.8,200,2000,3,"subject","median",0.62626,0.49832,0.73687,107,23133,216.196261682243,1,0.900817757009346,"Stroop_1","internal_consistency"
"207",0.9,200,2000,3,"subject","median",0.63439,0.50901,0.73344,107,23133,216.196261682243,1,0.900817757009346,"Stroop_1","internal_consistency"
"208",0,0,3000,3,"subject","median",0.60432,0.45126,0.71681,107,23242,217.214953271028,1,0.90506230529595,"Stroop_1","internal_consistency"
"209",0.8,0,3000,3,"subject","median",0.60117,0.45595,0.71548,107,23242,217.214953271028,1,0.90506230529595,"Stroop_1","internal_consistency"
"210",0.9,0,3000,3,"subject","median",0.60101,0.46308,0.72088,107,23242,217.214953271028,1,0.90506230529595,"Stroop_1","internal_consistency"
"211",0,100,3000,3,"subject","median",0.6394,0.48951,0.74138,107,23219,217,1,0.904166666666667,"Stroop_1","internal_consistency"
"212",0.8,100,3000,3,"subject","median",0.64585,0.49966,0.75693,107,23219,217,1,0.904166666666667,"Stroop_1","internal_consistency"
"213",0.9,100,3000,3,"subject","median",0.64127,0.49377,0.75456,107,23219,217,1,0.904166666666667,"Stroop_1","internal_consistency"
"214",0,200,3000,3,"subject","median",0.63458,0.51184,0.73726,107,23201,216.831775700935,1,0.903465732087227,"Stroop_1","internal_consistency"
"215",0.8,200,3000,3,"subject","median",0.634,0.49529,0.73646,107,23201,216.831775700935,1,0.903465732087227,"Stroop_1","internal_consistency"
"216",0.9,200,3000,3,"subject","median",0.63823,0.48834,0.73643,107,23201,216.831775700935,1,0.903465732087227,"Stroop_1","internal_consistency"
"217",0,0,2000,0,"trial","median",0.59027,0.43386,0.71868,107,23529,219.897196261682,1,0.916238317757009,"Stroop_1","internal_consistency"
"218",0.8,0,2000,0,"trial","median",0.59063,0.44557,0.70235,107,23529,219.897196261682,1,0.916238317757009,"Stroop_1","internal_consistency"
"219",0.9,0,2000,0,"trial","median",0.59896,0.44512,0.7254,107,23529,219.897196261682,1,0.916238317757009,"Stroop_1","internal_consistency"
"220",0,100,2000,0,"trial","median",0.63519,0.49092,0.74267,107,23506,219.682242990654,1,0.915342679127726,"Stroop_1","internal_consistency"
"221",0.8,100,2000,0,"trial","median",0.6263,0.48565,0.73954,107,23506,219.682242990654,1,0.915342679127726,"Stroop_1","internal_consistency"
"222",0.9,100,2000,0,"trial","median",0.6282,0.47367,0.74028,107,23506,219.682242990654,1,0.915342679127726,"Stroop_1","internal_consistency"
"223",0,200,2000,0,"trial","median",0.62204,0.49413,0.72948,107,23488,219.514018691589,1,0.914641744548287,"Stroop_1","internal_consistency"
"224",0.8,200,2000,0,"trial","median",0.6309,0.47915,0.74071,107,23488,219.514018691589,1,0.914641744548287,"Stroop_1","internal_consistency"
"225",0.9,200,2000,0,"trial","median",0.62748,0.48794,0.73321,107,23488,219.514018691589,1,0.914641744548287,"Stroop_1","internal_consistency"
"226",0,0,3000,0,"trial","median",0.61484,0.47594,0.72278,107,23619,220.738317757009,1,0.919742990654206,"Stroop_1","internal_consistency"
"227",0.8,0,3000,0,"trial","median",0.6154,0.47707,0.72723,107,23619,220.738317757009,1,0.919742990654206,"Stroop_1","internal_consistency"
"228",0.9,0,3000,0,"trial","median",0.61361,0.46542,0.72844,107,23619,220.738317757009,1,0.919742990654206,"Stroop_1","internal_consistency"
"229",0,100,3000,0,"trial","median",0.64082,0.49567,0.75555,107,23596,220.523364485981,1,0.918847352024922,"Stroop_1","internal_consistency"
"230",0.8,100,3000,0,"trial","median",0.64828,0.51381,0.75378,107,23596,220.523364485981,1,0.918847352024922,"Stroop_1","internal_consistency"
"231",0.9,100,3000,0,"trial","median",0.64177,0.4656,0.75551,107,23596,220.523364485981,1,0.918847352024922,"Stroop_1","internal_consistency"
"232",0,200,3000,0,"trial","median",0.64217,0.51278,0.74796,107,23578,220.355140186916,1,0.918146417445483,"Stroop_1","internal_consistency"
"233",0.8,200,3000,0,"trial","median",0.64642,0.50423,0.7459,107,23578,220.355140186916,1,0.918146417445483,"Stroop_1","internal_consistency"
"234",0.9,200,3000,0,"trial","median",0.63773,0.51514,0.74523,107,23578,220.355140186916,1,0.918146417445483,"Stroop_1","internal_consistency"
"235",0,0,2000,1,"trial","median",0.75171,0.65762,0.82564,107,17516,163.700934579439,1,0.68208722741433,"Stroop_1","internal_consistency"
"236",0.8,0,2000,1,"trial","median",0.74986,0.65523,0.82759,107,17516,163.700934579439,1,0.68208722741433,"Stroop_1","internal_consistency"
"237",0.9,0,2000,1,"trial","median",0.75324,0.66378,0.82563,107,17516,163.700934579439,1,0.68208722741433,"Stroop_1","internal_consistency"
"238",0,100,2000,1,"trial","median",0.80008,0.71876,0.86172,107,17495,163.504672897196,1,0.681269470404984,"Stroop_1","internal_consistency"
"239",0.8,100,2000,1,"trial","median",0.80162,0.72088,0.85721,107,17495,163.504672897196,1,0.681269470404984,"Stroop_1","internal_consistency"
"240",0.9,100,2000,1,"trial","median",0.80222,0.72392,0.86135,107,17495,163.504672897196,1,0.681269470404984,"Stroop_1","internal_consistency"
"241",0,200,2000,1,"trial","median",0.77896,0.70715,0.84318,107,17481,163.373831775701,1,0.680724299065421,"Stroop_1","internal_consistency"
"242",0.8,200,2000,1,"trial","median",0.77811,0.70212,0.83566,107,17481,163.373831775701,1,0.680724299065421,"Stroop_1","internal_consistency"
"243",0.9,200,2000,1,"trial","median",0.77648,0.69821,0.83933,107,17481,163.373831775701,1,0.680724299065421,"Stroop_1","internal_consistency"
"244",0,0,3000,1,"trial","median",0.75952,0.67152,0.82653,107,17979,168.028037383178,1,0.700116822429907,"Stroop_1","internal_consistency"
"245",0.8,0,3000,1,"trial","median",0.76114,0.6692,0.82991,107,17979,168.028037383178,1,0.700116822429907,"Stroop_1","internal_consistency"
"246",0.9,0,3000,1,"trial","median",0.76094,0.67761,0.82479,107,17979,168.028037383178,1,0.700116822429907,"Stroop_1","internal_consistency"
"247",0,100,3000,1,"trial","median",0.80793,0.72731,0.86541,107,17958,167.831775700935,1,0.699299065420561,"Stroop_1","internal_consistency"
"248",0.8,100,3000,1,"trial","median",0.80601,0.73728,0.86286,107,17958,167.831775700935,1,0.699299065420561,"Stroop_1","internal_consistency"
"249",0.9,100,3000,1,"trial","median",0.80492,0.71986,0.8574,107,17958,167.831775700935,1,0.699299065420561,"Stroop_1","internal_consistency"
"250",0,200,3000,1,"trial","median",0.78408,0.70756,0.84248,107,17944,167.700934579439,1,0.698753894080997,"Stroop_1","internal_consistency"
"251",0.8,200,3000,1,"trial","median",0.78394,0.70613,0.8427,107,17944,167.700934579439,1,0.698753894080997,"Stroop_1","internal_consistency"
"252",0.9,200,3000,1,"trial","median",0.78204,0.70722,0.84118,107,17944,167.700934579439,1,0.698753894080997,"Stroop_1","internal_consistency"
"253",0,0,2000,2,"trial","median",0.61438,0.47333,0.72247,107,22472,210.018691588785,1,0.875077881619938,"Stroop_1","internal_consistency"
"254",0.8,0,2000,2,"trial","median",0.61527,0.46771,0.72987,107,22472,210.018691588785,1,0.875077881619938,"Stroop_1","internal_consistency"
"255",0.9,0,2000,2,"trial","median",0.61232,0.47657,0.72307,107,22472,210.018691588785,1,0.875077881619938,"Stroop_1","internal_consistency"
"256",0,100,2000,2,"trial","median",0.64826,0.50526,0.75026,107,22451,209.822429906542,1,0.874260124610592,"Stroop_1","internal_consistency"
"257",0.8,100,2000,2,"trial","median",0.64627,0.48886,0.7624,107,22451,209.822429906542,1,0.874260124610592,"Stroop_1","internal_consistency"
"258",0.9,100,2000,2,"trial","median",0.64129,0.49339,0.75788,107,22451,209.822429906542,1,0.874260124610592,"Stroop_1","internal_consistency"
"259",0,200,2000,2,"trial","median",0.64564,0.51983,0.74965,107,22435,209.672897196262,1,0.87363707165109,"Stroop_1","internal_consistency"
"260",0.8,200,2000,2,"trial","median",0.64217,0.50615,0.74157,107,22435,209.672897196262,1,0.87363707165109,"Stroop_1","internal_consistency"
"261",0.9,200,2000,2,"trial","median",0.63861,0.52506,0.74806,107,22435,209.672897196262,1,0.87363707165109,"Stroop_1","internal_consistency"
"262",0,0,3000,2,"trial","median",0.62743,0.49483,0.73652,107,22582,211.046728971963,1,0.879361370716511,"Stroop_1","internal_consistency"
"263",0.8,0,3000,2,"trial","median",0.62755,0.49162,0.72715,107,22582,211.046728971963,1,0.879361370716511,"Stroop_1","internal_consistency"
"264",0.9,0,3000,2,"trial","median",0.62827,0.50363,0.73439,107,22582,211.046728971963,1,0.879361370716511,"Stroop_1","internal_consistency"
"265",0,100,3000,2,"trial","median",0.65793,0.50222,0.76755,107,22561,210.85046728972,1,0.878543613707165,"Stroop_1","internal_consistency"
"266",0.8,100,3000,2,"trial","median",0.66016,0.49543,0.76566,107,22561,210.85046728972,1,0.878543613707165,"Stroop_1","internal_consistency"
"267",0.9,100,3000,2,"trial","median",0.65221,0.50096,0.76511,107,22561,210.85046728972,1,0.878543613707165,"Stroop_1","internal_consistency"
"268",0,200,3000,2,"trial","median",0.65008,0.52335,0.75313,107,22545,210.700934579439,1,0.877920560747664,"Stroop_1","internal_consistency"
"269",0.8,200,3000,2,"trial","median",0.65237,0.53284,0.74912,107,22545,210.700934579439,1,0.877920560747664,"Stroop_1","internal_consistency"
"270",0.9,200,3000,2,"trial","median",0.65124,0.53508,0.74679,107,22545,210.700934579439,1,0.877920560747664,"Stroop_1","internal_consistency"
"271",0,0,2000,3,"trial","median",0.60469,0.44851,0.72391,107,23183,216.663551401869,1,0.902764797507788,"Stroop_1","internal_consistency"
"272",0.8,0,2000,3,"trial","median",0.61132,0.46306,0.72579,107,23183,216.663551401869,1,0.902764797507788,"Stroop_1","internal_consistency"
"273",0.9,0,2000,3,"trial","median",0.60942,0.45913,0.71986,107,23183,216.663551401869,1,0.902764797507788,"Stroop_1","internal_consistency"
"274",0,100,2000,3,"trial","median",0.64275,0.48889,0.75993,107,23160,216.448598130841,1,0.901869158878505,"Stroop_1","internal_consistency"
"275",0.8,100,2000,3,"trial","median",0.64883,0.50306,0.75025,107,23160,216.448598130841,1,0.901869158878505,"Stroop_1","internal_consistency"
"276",0.9,100,2000,3,"trial","median",0.64298,0.49816,0.74745,107,23160,216.448598130841,1,0.901869158878505,"Stroop_1","internal_consistency"
"277",0,200,2000,3,"trial","median",0.64689,0.52708,0.74652,107,23141,216.271028037383,1,0.901129283489097,"Stroop_1","internal_consistency"
"278",0.8,200,2000,3,"trial","median",0.64122,0.52272,0.73659,107,23141,216.271028037383,1,0.901129283489097,"Stroop_1","internal_consistency"
"279",0.9,200,2000,3,"trial","median",0.64078,0.5161,0.74387,107,23141,216.271028037383,1,0.901129283489097,"Stroop_1","internal_consistency"
"280",0,0,3000,3,"trial","median",0.61226,0.46611,0.7279,107,23249,217.280373831776,1,0.905334890965732,"Stroop_1","internal_consistency"
"281",0.8,0,3000,3,"trial","median",0.6164,0.48455,0.73079,107,23249,217.280373831776,1,0.905334890965732,"Stroop_1","internal_consistency"
"282",0.9,0,3000,3,"trial","median",0.61303,0.48155,0.7269,107,23249,217.280373831776,1,0.905334890965732,"Stroop_1","internal_consistency"
"283",0,100,3000,3,"trial","median",0.64673,0.49099,0.75253,107,23226,217.065420560748,1,0.904439252336449,"Stroop_1","internal_consistency"
"284",0.8,100,3000,3,"trial","median",0.64664,0.4889,0.76617,107,23226,217.065420560748,1,0.904439252336449,"Stroop_1","internal_consistency"
"285",0.9,100,3000,3,"trial","median",0.64923,0.51722,0.75718,107,23226,217.065420560748,1,0.904439252336449,"Stroop_1","internal_consistency"
"286",0,200,3000,3,"trial","median",0.64118,0.52353,0.73928,107,23207,216.88785046729,1,0.903699376947041,"Stroop_1","internal_consistency"
"287",0.8,200,3000,3,"trial","median",0.647,0.50363,0.74892,107,23207,216.88785046729,1,0.903699376947041,"Stroop_1","internal_consistency"
"288",0.9,200,3000,3,"trial","median",0.64826,0.51631,0.75052,107,23207,216.88785046729,1,0.903699376947041,"Stroop_1","internal_consistency"
"289",0,0,2000,0,"subject","mean",0.54325,0.39122,0.67391,107,23124,216.11214953271,1,0.900467289719626,"Stroop_2","internal_consistency"
"290",0.8,0,2000,0,"subject","mean",0.55053,0.39547,0.67603,107,23124,216.11214953271,1,0.900467289719626,"Stroop_2","internal_consistency"
"291",0.9,0,2000,0,"subject","mean",0.55551,0.40363,0.67506,107,23124,216.11214953271,1,0.900467289719626,"Stroop_2","internal_consistency"
"292",0,100,2000,0,"subject","mean",0.54583,0.36441,0.67921,107,23090,215.794392523364,1,0.899143302180685,"Stroop_2","internal_consistency"
"293",0.8,100,2000,0,"subject","mean",0.54571,0.37951,0.67219,107,23090,215.794392523364,1,0.899143302180685,"Stroop_2","internal_consistency"
"294",0.9,100,2000,0,"subject","mean",0.54585,0.39759,0.66817,107,23090,215.794392523364,1,0.899143302180685,"Stroop_2","internal_consistency"
"295",0,200,2000,0,"subject","mean",0.50367,0.32662,0.65136,107,23060,215.514018691589,1,0.89797507788162,"Stroop_2","internal_consistency"
"296",0.8,200,2000,0,"subject","mean",0.50334,0.28771,0.66831,107,23060,215.514018691589,1,0.89797507788162,"Stroop_2","internal_consistency"
"297",0.9,200,2000,0,"subject","mean",0.50852,0.31982,0.65232,107,23060,215.514018691589,1,0.89797507788162,"Stroop_2","internal_consistency"
"298",0,0,3000,0,"subject","mean",0.5987,0.43489,0.71427,107,23160,216.448598130841,1,0.901869158878505,"Stroop_2","internal_consistency"
"299",0.8,0,3000,0,"subject","mean",0.60503,0.45857,0.72451,107,23160,216.448598130841,1,0.901869158878505,"Stroop_2","internal_consistency"
"300",0.9,0,3000,0,"subject","mean",0.60583,0.46103,0.72051,107,23160,216.448598130841,1,0.901869158878505,"Stroop_2","internal_consistency"
"301",0,100,3000,0,"subject","mean",0.59304,0.43415,0.7113,107,23126,216.130841121495,1,0.900545171339564,"Stroop_2","internal_consistency"
"302",0.8,100,3000,0,"subject","mean",0.58945,0.43616,0.71029,107,23126,216.130841121495,1,0.900545171339564,"Stroop_2","internal_consistency"
"303",0.9,100,3000,0,"subject","mean",0.59732,0.4619,0.71891,107,23126,216.130841121495,1,0.900545171339564,"Stroop_2","internal_consistency"
"304",0,200,3000,0,"subject","mean",0.56243,0.37342,0.69488,107,23096,215.85046728972,1,0.899376947040498,"Stroop_2","internal_consistency"
"305",0.8,200,3000,0,"subject","mean",0.57094,0.3869,0.69864,107,23096,215.85046728972,1,0.899376947040498,"Stroop_2","internal_consistency"
"306",0.9,200,3000,0,"subject","mean",0.56372,0.37749,0.69645,107,23096,215.85046728972,1,0.899376947040498,"Stroop_2","internal_consistency"
"307",0,0,2000,1,"subject","mean",0.61253,0.48683,0.7247,107,17324,161.906542056075,1,0.674610591900311,"Stroop_2","internal_consistency"
"308",0.8,0,2000,1,"subject","mean",0.61535,0.47769,0.72264,107,17324,161.906542056075,1,0.674610591900311,"Stroop_2","internal_consistency"
"309",0.9,0,2000,1,"subject","mean",0.61491,0.48071,0.73162,107,17324,161.906542056075,1,0.674610591900311,"Stroop_2","internal_consistency"
"310",0,100,2000,1,"subject","mean",0.581,0.43494,0.70518,107,17291,161.598130841122,1,0.67332554517134,"Stroop_2","internal_consistency"
"311",0.8,100,2000,1,"subject","mean",0.57819,0.4053,0.70052,107,17291,161.598130841122,1,0.67332554517134,"Stroop_2","internal_consistency"
"312",0.9,100,2000,1,"subject","mean",0.58083,0.43016,0.70868,107,17291,161.598130841122,1,0.67332554517134,"Stroop_2","internal_consistency"
"313",0,200,2000,1,"subject","mean",0.56836,0.38842,0.70145,107,17265,161.355140186916,1,0.67231308411215,"Stroop_2","internal_consistency"
"314",0.8,200,2000,1,"subject","mean",0.57112,0.38623,0.70673,107,17265,161.355140186916,1,0.67231308411215,"Stroop_2","internal_consistency"
"315",0.9,200,2000,1,"subject","mean",0.5705,0.39029,0.69739,107,17265,161.355140186916,1,0.67231308411215,"Stroop_2","internal_consistency"
"316",0,0,3000,1,"subject","mean",0.58874,0.43318,0.71392,107,17592,164.411214953271,1,0.685046728971963,"Stroop_2","internal_consistency"
"317",0.8,0,3000,1,"subject","mean",0.58841,0.42435,0.71408,107,17592,164.411214953271,1,0.685046728971963,"Stroop_2","internal_consistency"
"318",0.9,0,3000,1,"subject","mean",0.5935,0.43372,0.71412,107,17592,164.411214953271,1,0.685046728971963,"Stroop_2","internal_consistency"
"319",0,100,3000,1,"subject","mean",0.5673,0.41929,0.69306,107,17576,164.261682242991,1,0.684423676012461,"Stroop_2","internal_consistency"
"320",0.8,100,3000,1,"subject","mean",0.56988,0.42099,0.68849,107,17576,164.261682242991,1,0.684423676012461,"Stroop_2","internal_consistency"
"321",0.9,100,3000,1,"subject","mean",0.57158,0.39384,0.70516,107,17576,164.261682242991,1,0.684423676012461,"Stroop_2","internal_consistency"
"322",0,200,3000,1,"subject","mean",0.5565,0.37371,0.66974,107,17559,164.102803738318,1,0.683761682242991,"Stroop_2","internal_consistency"
"323",0.8,200,3000,1,"subject","mean",0.55768,0.36196,0.698,107,17559,164.102803738318,1,0.683761682242991,"Stroop_2","internal_consistency"
"324",0.9,200,3000,1,"subject","mean",0.55477,0.35734,0.69597,107,17559,164.102803738318,1,0.683761682242991,"Stroop_2","internal_consistency"
"325",0,0,2000,2,"subject","mean",0.57561,0.41509,0.70845,107,22086,206.411214953271,1,0.860046728971963,"Stroop_2","internal_consistency"
"326",0.8,0,2000,2,"subject","mean",0.58002,0.44194,0.71234,107,22086,206.411214953271,1,0.860046728971963,"Stroop_2","internal_consistency"
"327",0.9,0,2000,2,"subject","mean",0.58602,0.43009,0.70994,107,22086,206.411214953271,1,0.860046728971963,"Stroop_2","internal_consistency"
"328",0,100,2000,2,"subject","mean",0.58655,0.41597,0.70915,107,22061,206.177570093458,1,0.859073208722741,"Stroop_2","internal_consistency"
"329",0.8,100,2000,2,"subject","mean",0.58704,0.42609,0.70542,107,22061,206.177570093458,1,0.859073208722741,"Stroop_2","internal_consistency"
"330",0.9,100,2000,2,"subject","mean",0.59201,0.43466,0.71318,107,22061,206.177570093458,1,0.859073208722741,"Stroop_2","internal_consistency"
"331",0,200,2000,2,"subject","mean",0.54996,0.38779,0.68586,107,22033,205.915887850467,1,0.857982866043614,"Stroop_2","internal_consistency"
"332",0.8,200,2000,2,"subject","mean",0.5517,0.38326,0.68967,107,22033,205.915887850467,1,0.857982866043614,"Stroop_2","internal_consistency"
"333",0.9,200,2000,2,"subject","mean",0.55692,0.37008,0.68955,107,22033,205.915887850467,1,0.857982866043614,"Stroop_2","internal_consistency"
"334",0,0,3000,2,"subject","mean",0.58167,0.42234,0.71046,107,22153,207.03738317757,1,0.862655763239875,"Stroop_2","internal_consistency"
"335",0.8,0,3000,2,"subject","mean",0.58925,0.4121,0.70727,107,22153,207.03738317757,1,0.862655763239875,"Stroop_2","internal_consistency"
"336",0.9,0,3000,2,"subject","mean",0.58449,0.44411,0.69136,107,22153,207.03738317757,1,0.862655763239875,"Stroop_2","internal_consistency"
"337",0,100,3000,2,"subject","mean",0.59521,0.44795,0.71459,107,22120,206.728971962617,1,0.861370716510903,"Stroop_2","internal_consistency"
"338",0.8,100,3000,2,"subject","mean",0.59396,0.44405,0.7251,107,22120,206.728971962617,1,0.861370716510903,"Stroop_2","internal_consistency"
"339",0.9,100,3000,2,"subject","mean",0.58966,0.44099,0.71848,107,22120,206.728971962617,1,0.861370716510903,"Stroop_2","internal_consistency"
"340",0,200,3000,2,"subject","mean",0.55262,0.38059,0.68114,107,22092,206.467289719626,1,0.860280373831776,"Stroop_2","internal_consistency"
"341",0.8,200,3000,2,"subject","mean",0.55551,0.38259,0.68869,107,22092,206.467289719626,1,0.860280373831776,"Stroop_2","internal_consistency"
"342",0.9,200,3000,2,"subject","mean",0.54992,0.38932,0.68679,107,22092,206.467289719626,1,0.860280373831776,"Stroop_2","internal_consistency"
"343",0,0,2000,3,"subject","mean",0.55831,0.39069,0.67954,107,22770,212.803738317757,1,0.886682242990654,"Stroop_2","internal_consistency"
"344",0.8,0,2000,3,"subject","mean",0.56791,0.39938,0.68696,107,22770,212.803738317757,1,0.886682242990654,"Stroop_2","internal_consistency"
"345",0.9,0,2000,3,"subject","mean",0.56243,0.38446,0.6997,107,22770,212.803738317757,1,0.886682242990654,"Stroop_2","internal_consistency"
"346",0,100,2000,3,"subject","mean",0.55287,0.38062,0.69162,107,22734,212.467289719626,1,0.885280373831776,"Stroop_2","internal_consistency"
"347",0.8,100,2000,3,"subject","mean",0.55643,0.36699,0.6855,107,22734,212.467289719626,1,0.885280373831776,"Stroop_2","internal_consistency"
"348",0.9,100,2000,3,"subject","mean",0.55649,0.36731,0.68831,107,22734,212.467289719626,1,0.885280373831776,"Stroop_2","internal_consistency"
"349",0,200,2000,3,"subject","mean",0.51338,0.30731,0.65762,107,22703,212.177570093458,1,0.884073208722741,"Stroop_2","internal_consistency"
"350",0.8,200,2000,3,"subject","mean",0.51645,0.33563,0.65339,107,22703,212.177570093458,1,0.884073208722741,"Stroop_2","internal_consistency"
"351",0.9,200,2000,3,"subject","mean",0.50628,0.27042,0.65906,107,22703,212.177570093458,1,0.884073208722741,"Stroop_2","internal_consistency"
"352",0,0,3000,3,"subject","mean",0.57429,0.42302,0.6997,107,22809,213.168224299065,1,0.888200934579439,"Stroop_2","internal_consistency"
"353",0.8,0,3000,3,"subject","mean",0.5783,0.4086,0.69512,107,22809,213.168224299065,1,0.888200934579439,"Stroop_2","internal_consistency"
"354",0.9,0,3000,3,"subject","mean",0.57369,0.43651,0.70613,107,22809,213.168224299065,1,0.888200934579439,"Stroop_2","internal_consistency"
"355",0,100,3000,3,"subject","mean",0.56959,0.39118,0.6873,107,22775,212.85046728972,1,0.886876947040498,"Stroop_2","internal_consistency"
"356",0.8,100,3000,3,"subject","mean",0.56386,0.37946,0.69368,107,22775,212.85046728972,1,0.886876947040498,"Stroop_2","internal_consistency"
"357",0.9,100,3000,3,"subject","mean",0.56244,0.36221,0.70029,107,22775,212.85046728972,1,0.886876947040498,"Stroop_2","internal_consistency"
"358",0,200,3000,3,"subject","mean",0.53034,0.33951,0.67414,107,22745,212.570093457944,1,0.885708722741433,"Stroop_2","internal_consistency"
"359",0.8,200,3000,3,"subject","mean",0.53466,0.32717,0.66933,107,22745,212.570093457944,1,0.885708722741433,"Stroop_2","internal_consistency"
"360",0.9,200,3000,3,"subject","mean",0.5259,0.31792,0.68562,107,22745,212.570093457944,1,0.885708722741433,"Stroop_2","internal_consistency"
"361",0,0,2000,0,"trial","mean",0.55425,0.40115,0.68874,107,23124,216.11214953271,1,0.900467289719626,"Stroop_2","internal_consistency"
"362",0.8,0,2000,0,"trial","mean",0.55289,0.40948,0.67104,107,23124,216.11214953271,1,0.900467289719626,"Stroop_2","internal_consistency"
"363",0.9,0,2000,0,"trial","mean",0.54943,0.38112,0.67738,107,23124,216.11214953271,1,0.900467289719626,"Stroop_2","internal_consistency"
"364",0,100,2000,0,"trial","mean",0.55427,0.38443,0.68084,107,23090,215.794392523364,1,0.899143302180685,"Stroop_2","internal_consistency"
"365",0.8,100,2000,0,"trial","mean",0.54749,0.36511,0.68063,107,23090,215.794392523364,1,0.899143302180685,"Stroop_2","internal_consistency"
"366",0.9,100,2000,0,"trial","mean",0.53883,0.35822,0.67277,107,23090,215.794392523364,1,0.899143302180685,"Stroop_2","internal_consistency"
"367",0,200,2000,0,"trial","mean",0.50166,0.29266,0.65107,107,23060,215.514018691589,1,0.89797507788162,"Stroop_2","internal_consistency"
"368",0.8,200,2000,0,"trial","mean",0.5088,0.32172,0.66259,107,23060,215.514018691589,1,0.89797507788162,"Stroop_2","internal_consistency"
"369",0.9,200,2000,0,"trial","mean",0.50028,0.31565,0.63802,107,23060,215.514018691589,1,0.89797507788162,"Stroop_2","internal_consistency"
"370",0,0,3000,0,"trial","mean",0.60926,0.47067,0.72053,107,23160,216.448598130841,1,0.901869158878505,"Stroop_2","internal_consistency"
"371",0.8,0,3000,0,"trial","mean",0.60403,0.44917,0.72334,107,23160,216.448598130841,1,0.901869158878505,"Stroop_2","internal_consistency"
"372",0.9,0,3000,0,"trial","mean",0.60353,0.44813,0.72513,107,23160,216.448598130841,1,0.901869158878505,"Stroop_2","internal_consistency"
"373",0,100,3000,0,"trial","mean",0.59592,0.46293,0.70821,107,23126,216.130841121495,1,0.900545171339564,"Stroop_2","internal_consistency"
"374",0.8,100,3000,0,"trial","mean",0.59372,0.44871,0.71492,107,23126,216.130841121495,1,0.900545171339564,"Stroop_2","internal_consistency"
"375",0.9,100,3000,0,"trial","mean",0.5903,0.44877,0.71667,107,23126,216.130841121495,1,0.900545171339564,"Stroop_2","internal_consistency"
"376",0,200,3000,0,"trial","mean",0.56326,0.38809,0.69731,107,23096,215.85046728972,1,0.899376947040498,"Stroop_2","internal_consistency"
"377",0.8,200,3000,0,"trial","mean",0.55932,0.38818,0.68948,107,23096,215.85046728972,1,0.899376947040498,"Stroop_2","internal_consistency"
"378",0.9,200,3000,0,"trial","mean",0.56091,0.40279,0.7009,107,23096,215.85046728972,1,0.899376947040498,"Stroop_2","internal_consistency"
"379",0,0,2000,1,"trial","mean",0.87323,0.83094,0.90902,107,17237,161.093457943925,1,0.671222741433022,"Stroop_2","internal_consistency"
"380",0.8,0,2000,1,"trial","mean",0.87317,0.82618,0.90714,107,17237,161.093457943925,1,0.671222741433022,"Stroop_2","internal_consistency"
"381",0.9,0,2000,1,"trial","mean",0.87363,0.82817,0.91162,107,17237,161.093457943925,1,0.671222741433022,"Stroop_2","internal_consistency"
"382",0,100,2000,1,"trial","mean",0.86588,0.82015,0.90552,107,17210,160.841121495327,1,0.670171339563863,"Stroop_2","internal_consistency"
"383",0.8,100,2000,1,"trial","mean",0.86444,0.81659,0.90244,107,17210,160.841121495327,1,0.670171339563863,"Stroop_2","internal_consistency"
"384",0.9,100,2000,1,"trial","mean",0.8659,0.81382,0.90498,107,17210,160.841121495327,1,0.670171339563863,"Stroop_2","internal_consistency"
"385",0,200,2000,1,"trial","mean",0.84792,0.78464,0.8978,107,17184,160.598130841122,1,0.669158878504673,"Stroop_2","internal_consistency"
"386",0.8,200,2000,1,"trial","mean",0.84788,0.77791,0.89587,107,17184,160.598130841122,1,0.669158878504673,"Stroop_2","internal_consistency"
"387",0.9,200,2000,1,"trial","mean",0.85039,0.78923,0.89565,107,17184,160.598130841122,1,0.669158878504673,"Stroop_2","internal_consistency"
"388",0,0,3000,1,"trial","mean",0.87505,0.83318,0.90942,107,17454,163.121495327103,1,0.679672897196262,"Stroop_2","internal_consistency"
"389",0.8,0,3000,1,"trial","mean",0.87389,0.82838,0.90827,107,17454,163.121495327103,1,0.679672897196262,"Stroop_2","internal_consistency"
"390",0.9,0,3000,1,"trial","mean",0.87457,0.83361,0.91088,107,17454,163.121495327103,1,0.679672897196262,"Stroop_2","internal_consistency"
"391",0,100,3000,1,"trial","mean",0.86601,0.8162,0.90615,107,17436,162.953271028037,1,0.678971962616822,"Stroop_2","internal_consistency"
"392",0.8,100,3000,1,"trial","mean",0.86831,0.82084,0.90561,107,17436,162.953271028037,1,0.678971962616822,"Stroop_2","internal_consistency"
"393",0.9,100,3000,1,"trial","mean",0.86731,0.81275,0.90767,107,17436,162.953271028037,1,0.678971962616822,"Stroop_2","internal_consistency"
"394",0,200,3000,1,"trial","mean",0.84872,0.78617,0.89738,107,17411,162.719626168224,1,0.677998442367601,"Stroop_2","internal_consistency"
"395",0.8,200,3000,1,"trial","mean",0.85446,0.80299,0.89624,107,17411,162.719626168224,1,0.677998442367601,"Stroop_2","internal_consistency"
"396",0.9,200,3000,1,"trial","mean",0.84951,0.79163,0.899,107,17411,162.719626168224,1,0.677998442367601,"Stroop_2","internal_consistency"
"397",0,0,2000,2,"trial","mean",0.6984,0.5933,0.79155,107,22126,206.785046728972,1,0.861604361370716,"Stroop_2","internal_consistency"
"398",0.8,0,2000,2,"trial","mean",0.70028,0.58017,0.79036,107,22126,206.785046728972,1,0.861604361370716,"Stroop_2","internal_consistency"
"399",0.9,0,2000,2,"trial","mean",0.70219,0.59737,0.79028,107,22126,206.785046728972,1,0.861604361370716,"Stroop_2","internal_consistency"
"400",0,100,2000,2,"trial","mean",0.69972,0.58897,0.79002,107,22103,206.570093457944,1,0.860708722741433,"Stroop_2","internal_consistency"
"401",0.8,100,2000,2,"trial","mean",0.70139,0.59019,0.78599,107,22103,206.570093457944,1,0.860708722741433,"Stroop_2","internal_consistency"
"402",0.9,100,2000,2,"trial","mean",0.69741,0.57629,0.78268,107,22103,206.570093457944,1,0.860708722741433,"Stroop_2","internal_consistency"
"403",0,200,2000,2,"trial","mean",0.67911,0.56345,0.76818,107,22077,206.327102803738,1,0.859696261682243,"Stroop_2","internal_consistency"
"404",0.8,200,2000,2,"trial","mean",0.67733,0.56453,0.77126,107,22077,206.327102803738,1,0.859696261682243,"Stroop_2","internal_consistency"
"405",0.9,200,2000,2,"trial","mean",0.6766,0.54763,0.76862,107,22077,206.327102803738,1,0.859696261682243,"Stroop_2","internal_consistency"
"406",0,0,3000,2,"trial","mean",0.72485,0.61964,0.80015,107,22180,207.289719626168,1,0.863707165109034,"Stroop_2","internal_consistency"
"407",0.8,0,3000,2,"trial","mean",0.72562,0.61794,0.80983,107,22180,207.289719626168,1,0.863707165109034,"Stroop_2","internal_consistency"
"408",0.9,0,3000,2,"trial","mean",0.7264,0.63394,0.80639,107,22180,207.289719626168,1,0.863707165109034,"Stroop_2","internal_consistency"
"409",0,100,3000,2,"trial","mean",0.73079,0.63076,0.81743,107,22151,207.018691588785,1,0.862577881619938,"Stroop_2","internal_consistency"
"410",0.8,100,3000,2,"trial","mean",0.72957,0.62401,0.80768,107,22151,207.018691588785,1,0.862577881619938,"Stroop_2","internal_consistency"
"411",0.9,100,3000,2,"trial","mean",0.72798,0.62944,0.80496,107,22151,207.018691588785,1,0.862577881619938,"Stroop_2","internal_consistency"
"412",0,200,3000,2,"trial","mean",0.70351,0.59115,0.78628,107,22124,206.766355140187,1,0.861526479750779,"Stroop_2","internal_consistency"
"413",0.8,200,3000,2,"trial","mean",0.70604,0.58854,0.79092,107,22124,206.766355140187,1,0.861526479750779,"Stroop_2","internal_consistency"
"414",0.9,200,3000,2,"trial","mean",0.71368,0.59964,0.79824,107,22124,206.766355140187,1,0.861526479750779,"Stroop_2","internal_consistency"
"415",0,0,2000,3,"trial","mean",0.66385,0.5488,0.76344,107,22770,212.803738317757,1,0.886682242990654,"Stroop_2","internal_consistency"
"416",0.8,0,2000,3,"trial","mean",0.66008,0.53673,0.76221,107,22770,212.803738317757,1,0.886682242990654,"Stroop_2","internal_consistency"
"417",0.9,0,2000,3,"trial","mean",0.66346,0.54192,0.75975,107,22770,212.803738317757,1,0.886682242990654,"Stroop_2","internal_consistency"
"418",0,100,2000,3,"trial","mean",0.65997,0.53302,0.76279,107,22734,212.467289719626,1,0.885280373831776,"Stroop_2","internal_consistency"
"419",0.8,100,2000,3,"trial","mean",0.65474,0.50623,0.76443,107,22734,212.467289719626,1,0.885280373831776,"Stroop_2","internal_consistency"
"420",0.9,100,2000,3,"trial","mean",0.66004,0.52458,0.7625,107,22734,212.467289719626,1,0.885280373831776,"Stroop_2","internal_consistency"
"421",0,200,2000,3,"trial","mean",0.63488,0.4679,0.75129,107,22703,212.177570093458,1,0.884073208722741,"Stroop_2","internal_consistency"
"422",0.8,200,2000,3,"trial","mean",0.63663,0.47662,0.75669,107,22703,212.177570093458,1,0.884073208722741,"Stroop_2","internal_consistency"
"423",0.9,200,2000,3,"trial","mean",0.63477,0.48596,0.74842,107,22703,212.177570093458,1,0.884073208722741,"Stroop_2","internal_consistency"
"424",0,0,3000,3,"trial","mean",0.68846,0.58015,0.77707,107,22798,213.065420560748,1,0.887772585669782,"Stroop_2","internal_consistency"
"425",0.8,0,3000,3,"trial","mean",0.68841,0.56734,0.77909,107,22798,213.065420560748,1,0.887772585669782,"Stroop_2","internal_consistency"
"426",0.9,0,3000,3,"trial","mean",0.69148,0.57349,0.78421,107,22798,213.065420560748,1,0.887772585669782,"Stroop_2","internal_consistency"
"427",0,100,3000,3,"trial","mean",0.69075,0.57057,0.78556,107,22762,212.728971962617,1,0.886370716510903,"Stroop_2","internal_consistency"
"428",0.8,100,3000,3,"trial","mean",0.68692,0.56891,0.78635,107,22762,212.728971962617,1,0.886370716510903,"Stroop_2","internal_consistency"
"429",0.9,100,3000,3,"trial","mean",0.68383,0.54311,0.77407,107,22762,212.728971962617,1,0.886370716510903,"Stroop_2","internal_consistency"
"430",0,200,3000,3,"trial","mean",0.66431,0.50556,0.7679,107,22733,212.457943925234,1,0.885241433021807,"Stroop_2","internal_consistency"
"431",0.8,200,3000,3,"trial","mean",0.66359,0.51068,0.76865,107,22733,212.457943925234,1,0.885241433021807,"Stroop_2","internal_consistency"
"432",0.9,200,3000,3,"trial","mean",0.66468,0.51085,0.77008,107,22733,212.457943925234,1,0.885241433021807,"Stroop_2","internal_consistency"
"433",0,0,2000,0,"subject","median",0.5477,0.38516,0.67969,107,23124,216.11214953271,1,0.900467289719626,"Stroop_2","internal_consistency"
"434",0.8,0,2000,0,"subject","median",0.5481,0.40401,0.66839,107,23124,216.11214953271,1,0.900467289719626,"Stroop_2","internal_consistency"
"435",0.9,0,2000,0,"subject","median",0.54857,0.37456,0.687,107,23124,216.11214953271,1,0.900467289719626,"Stroop_2","internal_consistency"
"436",0,100,2000,0,"subject","median",0.52796,0.34455,0.65601,107,23090,215.794392523364,1,0.899143302180685,"Stroop_2","internal_consistency"
"437",0.8,100,2000,0,"subject","median",0.52864,0.37468,0.65734,107,23090,215.794392523364,1,0.899143302180685,"Stroop_2","internal_consistency"
"438",0.9,100,2000,0,"subject","median",0.51752,0.33096,0.65817,107,23090,215.794392523364,1,0.899143302180685,"Stroop_2","internal_consistency"
"439",0,200,2000,0,"subject","median",0.48311,0.30825,0.63028,107,23060,215.514018691589,1,0.89797507788162,"Stroop_2","internal_consistency"
"440",0.8,200,2000,0,"subject","median",0.47906,0.27879,0.62803,107,23060,215.514018691589,1,0.89797507788162,"Stroop_2","internal_consistency"
"441",0.9,200,2000,0,"subject","median",0.48885,0.28914,0.63918,107,23060,215.514018691589,1,0.89797507788162,"Stroop_2","internal_consistency"
"442",0,0,3000,0,"subject","median",0.5639,0.3986,0.69738,107,23160,216.448598130841,1,0.901869158878505,"Stroop_2","internal_consistency"
"443",0.8,0,3000,0,"subject","median",0.56631,0.41198,0.69163,107,23160,216.448598130841,1,0.901869158878505,"Stroop_2","internal_consistency"
"444",0.9,0,3000,0,"subject","median",0.56669,0.41706,0.687,107,23160,216.448598130841,1,0.901869158878505,"Stroop_2","internal_consistency"
"445",0,100,3000,0,"subject","median",0.54245,0.37787,0.67524,107,23126,216.130841121495,1,0.900545171339564,"Stroop_2","internal_consistency"
"446",0.8,100,3000,0,"subject","median",0.54022,0.35859,0.67817,107,23126,216.130841121495,1,0.900545171339564,"Stroop_2","internal_consistency"
"447",0.9,100,3000,0,"subject","median",0.54578,0.36662,0.68,107,23126,216.130841121495,1,0.900545171339564,"Stroop_2","internal_consistency"
"448",0,200,3000,0,"subject","median",0.50521,0.30671,0.64559,107,23096,215.85046728972,1,0.899376947040498,"Stroop_2","internal_consistency"
"449",0.8,200,3000,0,"subject","median",0.49746,0.28944,0.64672,107,23096,215.85046728972,1,0.899376947040498,"Stroop_2","internal_consistency"
"450",0.9,200,3000,0,"subject","median",0.49781,0.30465,0.6463,107,23096,215.85046728972,1,0.899376947040498,"Stroop_2","internal_consistency"
"451",0,0,2000,1,"subject","median",0.51778,0.32497,0.6526,107,17324,161.906542056075,1,0.674610591900311,"Stroop_2","internal_consistency"
"452",0.8,0,2000,1,"subject","median",0.51748,0.34532,0.66587,107,17324,161.906542056075,1,0.674610591900311,"Stroop_2","internal_consistency"
"453",0.9,0,2000,1,"subject","median",0.51763,0.34279,0.66698,107,17324,161.906542056075,1,0.674610591900311,"Stroop_2","internal_consistency"
"454",0,100,2000,1,"subject","median",0.47169,0.28515,0.63002,107,17291,161.598130841122,1,0.67332554517134,"Stroop_2","internal_consistency"
"455",0.8,100,2000,1,"subject","median",0.46632,0.29047,0.61867,107,17291,161.598130841122,1,0.67332554517134,"Stroop_2","internal_consistency"
"456",0.9,100,2000,1,"subject","median",0.47468,0.2707,0.63049,107,17291,161.598130841122,1,0.67332554517134,"Stroop_2","internal_consistency"
"457",0,200,2000,1,"subject","median",0.44682,0.24681,0.61341,107,17265,161.355140186916,1,0.67231308411215,"Stroop_2","internal_consistency"
"458",0.8,200,2000,1,"subject","median",0.4447,0.25891,0.60234,107,17265,161.355140186916,1,0.67231308411215,"Stroop_2","internal_consistency"
"459",0.9,200,2000,1,"subject","median",0.44306,0.26107,0.60111,107,17265,161.355140186916,1,0.67231308411215,"Stroop_2","internal_consistency"
"460",0,0,3000,1,"subject","median",0.5058,0.32782,0.64838,107,17592,164.411214953271,1,0.685046728971963,"Stroop_2","internal_consistency"
"461",0.8,0,3000,1,"subject","median",0.50405,0.32135,0.6508,107,17592,164.411214953271,1,0.685046728971963,"Stroop_2","internal_consistency"
"462",0.9,0,3000,1,"subject","median",0.50791,0.32015,0.64658,107,17592,164.411214953271,1,0.685046728971963,"Stroop_2","internal_consistency"
"463",0,100,3000,1,"subject","median",0.46445,0.25254,0.61555,107,17576,164.261682242991,1,0.684423676012461,"Stroop_2","internal_consistency"
"464",0.8,100,3000,1,"subject","median",0.46795,0.27985,0.62691,107,17576,164.261682242991,1,0.684423676012461,"Stroop_2","internal_consistency"
"465",0.9,100,3000,1,"subject","median",0.46884,0.28191,0.62894,107,17576,164.261682242991,1,0.684423676012461,"Stroop_2","internal_consistency"
"466",0,200,3000,1,"subject","median",0.45184,0.25995,0.61512,107,17559,164.102803738318,1,0.683761682242991,"Stroop_2","internal_consistency"
"467",0.8,200,3000,1,"subject","median",0.45223,0.26507,0.59781,107,17559,164.102803738318,1,0.683761682242991,"Stroop_2","internal_consistency"
"468",0.9,200,3000,1,"subject","median",0.44954,0.2648,0.61175,107,17559,164.102803738318,1,0.683761682242991,"Stroop_2","internal_consistency"
"469",0,0,2000,2,"subject","median",0.53774,0.38203,0.6648,107,22086,206.411214953271,1,0.860046728971963,"Stroop_2","internal_consistency"
"470",0.8,0,2000,2,"subject","median",0.53702,0.36885,0.66186,107,22086,206.411214953271,1,0.860046728971963,"Stroop_2","internal_consistency"
"471",0.9,0,2000,2,"subject","median",0.53812,0.37695,0.67412,107,22086,206.411214953271,1,0.860046728971963,"Stroop_2","internal_consistency"
"472",0,100,2000,2,"subject","median",0.52051,0.37175,0.65553,107,22061,206.177570093458,1,0.859073208722741,"Stroop_2","internal_consistency"
"473",0.8,100,2000,2,"subject","median",0.52889,0.36034,0.66111,107,22061,206.177570093458,1,0.859073208722741,"Stroop_2","internal_consistency"
"474",0.9,100,2000,2,"subject","median",0.51685,0.3498,0.65935,107,22061,206.177570093458,1,0.859073208722741,"Stroop_2","internal_consistency"
"475",0,200,2000,2,"subject","median",0.48659,0.31427,0.62734,107,22033,205.915887850467,1,0.857982866043614,"Stroop_2","internal_consistency"
"476",0.8,200,2000,2,"subject","median",0.49018,0.32509,0.62865,107,22033,205.915887850467,1,0.857982866043614,"Stroop_2","internal_consistency"
"477",0.9,200,2000,2,"subject","median",0.48654,0.31633,0.64375,107,22033,205.915887850467,1,0.857982866043614,"Stroop_2","internal_consistency"
"478",0,0,3000,2,"subject","median",0.5461,0.39033,0.67249,107,22153,207.03738317757,1,0.862655763239875,"Stroop_2","internal_consistency"
"479",0.8,0,3000,2,"subject","median",0.55136,0.39075,0.67735,107,22153,207.03738317757,1,0.862655763239875,"Stroop_2","internal_consistency"
"480",0.9,0,3000,2,"subject","median",0.55189,0.4033,0.68444,107,22153,207.03738317757,1,0.862655763239875,"Stroop_2","internal_consistency"
"481",0,100,3000,2,"subject","median",0.53425,0.37843,0.66878,107,22120,206.728971962617,1,0.861370716510903,"Stroop_2","internal_consistency"
"482",0.8,100,3000,2,"subject","median",0.53786,0.37246,0.66646,107,22120,206.728971962617,1,0.861370716510903,"Stroop_2","internal_consistency"
"483",0.9,100,3000,2,"subject","median",0.53456,0.38427,0.65688,107,22120,206.728971962617,1,0.861370716510903,"Stroop_2","internal_consistency"
"484",0,200,3000,2,"subject","median",0.49907,0.34124,0.6459,107,22092,206.467289719626,1,0.860280373831776,"Stroop_2","internal_consistency"
"485",0.8,200,3000,2,"subject","median",0.49579,0.31959,0.63777,107,22092,206.467289719626,1,0.860280373831776,"Stroop_2","internal_consistency"
"486",0.9,200,3000,2,"subject","median",0.4996,0.31064,0.64669,107,22092,206.467289719626,1,0.860280373831776,"Stroop_2","internal_consistency"
"487",0,0,2000,3,"subject","median",0.54055,0.39088,0.6766,107,22770,212.803738317757,1,0.886682242990654,"Stroop_2","internal_consistency"
"488",0.8,0,2000,3,"subject","median",0.5416,0.38173,0.67013,107,22770,212.803738317757,1,0.886682242990654,"Stroop_2","internal_consistency"
"489",0.9,0,2000,3,"subject","median",0.54099,0.39552,0.67661,107,22770,212.803738317757,1,0.886682242990654,"Stroop_2","internal_consistency"
"490",0,100,2000,3,"subject","median",0.51563,0.34993,0.65571,107,22734,212.467289719626,1,0.885280373831776,"Stroop_2","internal_consistency"
"491",0.8,100,2000,3,"subject","median",0.51286,0.31393,0.66844,107,22734,212.467289719626,1,0.885280373831776,"Stroop_2","internal_consistency"
"492",0.9,100,2000,3,"subject","median",0.51684,0.34142,0.64167,107,22734,212.467289719626,1,0.885280373831776,"Stroop_2","internal_consistency"
"493",0,200,2000,3,"subject","median",0.47828,0.28865,0.62888,107,22703,212.177570093458,1,0.884073208722741,"Stroop_2","internal_consistency"
"494",0.8,200,2000,3,"subject","median",0.47945,0.28097,0.63547,107,22703,212.177570093458,1,0.884073208722741,"Stroop_2","internal_consistency"
"495",0.9,200,2000,3,"subject","median",0.47981,0.30401,0.62978,107,22703,212.177570093458,1,0.884073208722741,"Stroop_2","internal_consistency"
"496",0,0,3000,3,"subject","median",0.54996,0.38109,0.68,107,22809,213.168224299065,1,0.888200934579439,"Stroop_2","internal_consistency"
"497",0.8,0,3000,3,"subject","median",0.54914,0.37861,0.67664,107,22809,213.168224299065,1,0.888200934579439,"Stroop_2","internal_consistency"
"498",0.9,0,3000,3,"subject","median",0.54504,0.39168,0.6819,107,22809,213.168224299065,1,0.888200934579439,"Stroop_2","internal_consistency"
"499",0,100,3000,3,"subject","median",0.52613,0.35444,0.66436,107,22775,212.85046728972,1,0.886876947040498,"Stroop_2","internal_consistency"
"500",0.8,100,3000,3,"subject","median",0.52678,0.36916,0.65924,107,22775,212.85046728972,1,0.886876947040498,"Stroop_2","internal_consistency"
"501",0.9,100,3000,3,"subject","median",0.52393,0.34552,0.65437,107,22775,212.85046728972,1,0.886876947040498,"Stroop_2","internal_consistency"
"502",0,200,3000,3,"subject","median",0.48728,0.28069,0.64081,107,22745,212.570093457944,1,0.885708722741433,"Stroop_2","internal_consistency"
"503",0.8,200,3000,3,"subject","median",0.48236,0.28705,0.64054,107,22745,212.570093457944,1,0.885708722741433,"Stroop_2","internal_consistency"
"504",0.9,200,3000,3,"subject","median",0.4815,0.30223,0.62735,107,22745,212.570093457944,1,0.885708722741433,"Stroop_2","internal_consistency"
"505",0,0,2000,0,"trial","median",0.54413,0.36824,0.66892,107,23124,216.11214953271,1,0.900467289719626,"Stroop_2","internal_consistency"
"506",0.8,0,2000,0,"trial","median",0.55197,0.40108,0.68641,107,23124,216.11214953271,1,0.900467289719626,"Stroop_2","internal_consistency"
"507",0.9,0,2000,0,"trial","median",0.54344,0.38802,0.68973,107,23124,216.11214953271,1,0.900467289719626,"Stroop_2","internal_consistency"
"508",0,100,2000,0,"trial","median",0.52497,0.3488,0.67271,107,23090,215.794392523364,1,0.899143302180685,"Stroop_2","internal_consistency"
"509",0.8,100,2000,0,"trial","median",0.52587,0.37385,0.66003,107,23090,215.794392523364,1,0.899143302180685,"Stroop_2","internal_consistency"
"510",0.9,100,2000,0,"trial","median",0.52252,0.35863,0.67027,107,23090,215.794392523364,1,0.899143302180685,"Stroop_2","internal_consistency"
"511",0,200,2000,0,"trial","median",0.48359,0.29707,0.63857,107,23060,215.514018691589,1,0.89797507788162,"Stroop_2","internal_consistency"
"512",0.8,200,2000,0,"trial","median",0.48092,0.26441,0.63833,107,23060,215.514018691589,1,0.89797507788162,"Stroop_2","internal_consistency"
"513",0.9,200,2000,0,"trial","median",0.49037,0.31167,0.64261,107,23060,215.514018691589,1,0.89797507788162,"Stroop_2","internal_consistency"
"514",0,0,3000,0,"trial","median",0.56844,0.40855,0.67751,107,23160,216.448598130841,1,0.901869158878505,"Stroop_2","internal_consistency"
"515",0.8,0,3000,0,"trial","median",0.56626,0.42211,0.68796,107,23160,216.448598130841,1,0.901869158878505,"Stroop_2","internal_consistency"
"516",0.9,0,3000,0,"trial","median",0.56345,0.39926,0.68723,107,23160,216.448598130841,1,0.901869158878505,"Stroop_2","internal_consistency"
"517",0,100,3000,0,"trial","median",0.53799,0.3769,0.67183,107,23126,216.130841121495,1,0.900545171339564,"Stroop_2","internal_consistency"
"518",0.8,100,3000,0,"trial","median",0.54197,0.38226,0.68178,107,23126,216.130841121495,1,0.900545171339564,"Stroop_2","internal_consistency"
"519",0.9,100,3000,0,"trial","median",0.54533,0.3881,0.67275,107,23126,216.130841121495,1,0.900545171339564,"Stroop_2","internal_consistency"
"520",0,200,3000,0,"trial","median",0.50549,0.31654,0.6496,107,23096,215.85046728972,1,0.899376947040498,"Stroop_2","internal_consistency"
"521",0.8,200,3000,0,"trial","median",0.50532,0.33833,0.64805,107,23096,215.85046728972,1,0.899376947040498,"Stroop_2","internal_consistency"
"522",0.9,200,3000,0,"trial","median",0.50781,0.34355,0.64606,107,23096,215.85046728972,1,0.899376947040498,"Stroop_2","internal_consistency"
"523",0,0,2000,1,"trial","median",0.73542,0.64239,0.81082,107,17237,161.093457943925,1,0.671222741433022,"Stroop_2","internal_consistency"
"524",0.8,0,2000,1,"trial","median",0.73709,0.64534,0.80725,107,17237,161.093457943925,1,0.671222741433022,"Stroop_2","internal_consistency"
"525",0.9,0,2000,1,"trial","median",0.73372,0.65154,0.80714,107,17237,161.093457943925,1,0.671222741433022,"Stroop_2","internal_consistency"
"526",0,100,2000,1,"trial","median",0.71919,0.61642,0.79914,107,17210,160.841121495327,1,0.670171339563863,"Stroop_2","internal_consistency"
"527",0.8,100,2000,1,"trial","median",0.71491,0.61981,0.79221,107,17210,160.841121495327,1,0.670171339563863,"Stroop_2","internal_consistency"
"528",0.9,100,2000,1,"trial","median",0.71484,0.62905,0.79511,107,17210,160.841121495327,1,0.670171339563863,"Stroop_2","internal_consistency"
"529",0,200,2000,1,"trial","median",0.69375,0.58953,0.77831,107,17184,160.598130841122,1,0.669158878504673,"Stroop_2","internal_consistency"
"530",0.8,200,2000,1,"trial","median",0.68936,0.59342,0.77126,107,17184,160.598130841122,1,0.669158878504673,"Stroop_2","internal_consistency"
"531",0.9,200,2000,1,"trial","median",0.69312,0.59469,0.77542,107,17184,160.598130841122,1,0.669158878504673,"Stroop_2","internal_consistency"
"532",0,0,3000,1,"trial","median",0.73308,0.6385,0.8102,107,17454,163.121495327103,1,0.679672897196262,"Stroop_2","internal_consistency"
"533",0.8,0,3000,1,"trial","median",0.73268,0.64635,0.8098,107,17454,163.121495327103,1,0.679672897196262,"Stroop_2","internal_consistency"
"534",0.9,0,3000,1,"trial","median",0.73588,0.64498,0.81398,107,17454,163.121495327103,1,0.679672897196262,"Stroop_2","internal_consistency"
"535",0,100,3000,1,"trial","median",0.71557,0.61633,0.794,107,17436,162.953271028037,1,0.678971962616822,"Stroop_2","internal_consistency"
"536",0.8,100,3000,1,"trial","median",0.71635,0.62297,0.79511,107,17436,162.953271028037,1,0.678971962616822,"Stroop_2","internal_consistency"
"537",0.9,100,3000,1,"trial","median",0.71501,0.61701,0.79715,107,17436,162.953271028037,1,0.678971962616822,"Stroop_2","internal_consistency"
"538",0,200,3000,1,"trial","median",0.69133,0.57949,0.77364,107,17411,162.719626168224,1,0.677998442367601,"Stroop_2","internal_consistency"
"539",0.8,200,3000,1,"trial","median",0.69321,0.59211,0.77422,107,17411,162.719626168224,1,0.677998442367601,"Stroop_2","internal_consistency"
"540",0.9,200,3000,1,"trial","median",0.68736,0.57855,0.78163,107,17411,162.719626168224,1,0.677998442367601,"Stroop_2","internal_consistency"
"541",0,0,2000,2,"trial","median",0.57724,0.43707,0.69706,107,22126,206.785046728972,1,0.861604361370716,"Stroop_2","internal_consistency"
"542",0.8,0,2000,2,"trial","median",0.57833,0.44075,0.70619,107,22126,206.785046728972,1,0.861604361370716,"Stroop_2","internal_consistency"
"543",0.9,0,2000,2,"trial","median",0.57339,0.4295,0.68433,107,22126,206.785046728972,1,0.861604361370716,"Stroop_2","internal_consistency"
"544",0,100,2000,2,"trial","median",0.56004,0.42166,0.67888,107,22103,206.570093457944,1,0.860708722741433,"Stroop_2","internal_consistency"
"545",0.8,100,2000,2,"trial","median",0.56077,0.41164,0.69342,107,22103,206.570093457944,1,0.860708722741433,"Stroop_2","internal_consistency"
"546",0.9,100,2000,2,"trial","median",0.56433,0.40406,0.6797,107,22103,206.570093457944,1,0.860708722741433,"Stroop_2","internal_consistency"
"547",0,200,2000,2,"trial","median",0.52525,0.37067,0.66778,107,22077,206.327102803738,1,0.859696261682243,"Stroop_2","internal_consistency"
"548",0.8,200,2000,2,"trial","median",0.52815,0.3697,0.65302,107,22077,206.327102803738,1,0.859696261682243,"Stroop_2","internal_consistency"
"549",0.9,200,2000,2,"trial","median",0.52555,0.35859,0.66123,107,22077,206.327102803738,1,0.859696261682243,"Stroop_2","internal_consistency"
"550",0,0,3000,2,"trial","median",0.58946,0.46544,0.70591,107,22180,207.289719626168,1,0.863707165109034,"Stroop_2","internal_consistency"
"551",0.8,0,3000,2,"trial","median",0.59226,0.4686,0.70714,107,22180,207.289719626168,1,0.863707165109034,"Stroop_2","internal_consistency"
"552",0.9,0,3000,2,"trial","median",0.59264,0.45231,0.71745,107,22180,207.289719626168,1,0.863707165109034,"Stroop_2","internal_consistency"
"553",0,100,3000,2,"trial","median",0.57604,0.43037,0.69038,107,22151,207.018691588785,1,0.862577881619938,"Stroop_2","internal_consistency"
"554",0.8,100,3000,2,"trial","median",0.57616,0.43215,0.69508,107,22151,207.018691588785,1,0.862577881619938,"Stroop_2","internal_consistency"
"555",0.9,100,3000,2,"trial","median",0.57567,0.43038,0.68861,107,22151,207.018691588785,1,0.862577881619938,"Stroop_2","internal_consistency"
"556",0,200,3000,2,"trial","median",0.54358,0.384,0.66428,107,22124,206.766355140187,1,0.861526479750779,"Stroop_2","internal_consistency"
"557",0.8,200,3000,2,"trial","median",0.54409,0.39868,0.67086,107,22124,206.766355140187,1,0.861526479750779,"Stroop_2","internal_consistency"
"558",0.9,200,3000,2,"trial","median",0.55,0.41017,0.67117,107,22124,206.766355140187,1,0.861526479750779,"Stroop_2","internal_consistency"
"559",0,0,2000,3,"trial","median",0.55219,0.39416,0.67842,107,22770,212.803738317757,1,0.886682242990654,"Stroop_2","internal_consistency"
"560",0.8,0,2000,3,"trial","median",0.54956,0.40217,0.67227,107,22770,212.803738317757,1,0.886682242990654,"Stroop_2","internal_consistency"
"561",0.9,0,2000,3,"trial","median",0.55219,0.40801,0.68111,107,22770,212.803738317757,1,0.886682242990654,"Stroop_2","internal_consistency"
"562",0,100,2000,3,"trial","median",0.52761,0.3383,0.68317,107,22734,212.467289719626,1,0.885280373831776,"Stroop_2","internal_consistency"
"563",0.8,100,2000,3,"trial","median",0.52673,0.36586,0.66136,107,22734,212.467289719626,1,0.885280373831776,"Stroop_2","internal_consistency"
"564",0.9,100,2000,3,"trial","median",0.52474,0.354,0.65501,107,22734,212.467289719626,1,0.885280373831776,"Stroop_2","internal_consistency"
"565",0,200,2000,3,"trial","median",0.49024,0.30581,0.63905,107,22703,212.177570093458,1,0.884073208722741,"Stroop_2","internal_consistency"
"566",0.8,200,2000,3,"trial","median",0.49446,0.28611,0.63841,107,22703,212.177570093458,1,0.884073208722741,"Stroop_2","internal_consistency"
"567",0.9,200,2000,3,"trial","median",0.50025,0.29683,0.65351,107,22703,212.177570093458,1,0.884073208722741,"Stroop_2","internal_consistency"
"568",0,0,3000,3,"trial","median",0.56152,0.39963,0.68618,107,22798,213.065420560748,1,0.887772585669782,"Stroop_2","internal_consistency"
"569",0.8,0,3000,3,"trial","median",0.56899,0.41115,0.6959,107,22798,213.065420560748,1,0.887772585669782,"Stroop_2","internal_consistency"
"570",0.9,0,3000,3,"trial","median",0.56559,0.42441,0.67822,107,22798,213.065420560748,1,0.887772585669782,"Stroop_2","internal_consistency"
"571",0,100,3000,3,"trial","median",0.54454,0.36724,0.67397,107,22762,212.728971962617,1,0.886370716510903,"Stroop_2","internal_consistency"
"572",0.8,100,3000,3,"trial","median",0.55133,0.39858,0.67265,107,22762,212.728971962617,1,0.886370716510903,"Stroop_2","internal_consistency"
"573",0.9,100,3000,3,"trial","median",0.54733,0.38536,0.67756,107,22762,212.728971962617,1,0.886370716510903,"Stroop_2","internal_consistency"
"574",0,200,3000,3,"trial","median",0.51218,0.32148,0.65659,107,22733,212.457943925234,1,0.885241433021807,"Stroop_2","internal_consistency"
"575",0.8,200,3000,3,"trial","median",0.50736,0.33295,0.65175,107,22733,212.457943925234,1,0.885241433021807,"Stroop_2","internal_consistency"
"576",0.9,200,3000,3,"trial","median",0.51117,0.3121,0.65679,107,22733,212.457943925234,1,0.885241433021807,"Stroop_2","internal_consistency"
"577",0,0,2000,0,"subject","mean",0.57342,0.43251,0.7008,107,23211,216.92523364486,1,0.903855140186916,"Flanker_1","internal_consistency"
"578",0.8,0,2000,0,"subject","mean",0.56882,0.43305,0.69082,107,23211,216.92523364486,1,0.903855140186916,"Flanker_1","internal_consistency"
"579",0.9,0,2000,0,"subject","mean",0.57535,0.43295,0.69054,107,23211,216.92523364486,1,0.903855140186916,"Flanker_1","internal_consistency"
"580",0,100,2000,0,"subject","mean",0.55019,0.38757,0.66881,107,23086,215.757009345794,1,0.89898753894081,"Flanker_1","internal_consistency"
"581",0.8,100,2000,0,"subject","mean",0.54839,0.38798,0.67207,107,23086,215.757009345794,1,0.89898753894081,"Flanker_1","internal_consistency"
"582",0.9,100,2000,0,"subject","mean",0.54563,0.3697,0.67433,107,23086,215.757009345794,1,0.89898753894081,"Flanker_1","internal_consistency"
"583",0,200,2000,0,"subject","mean",0.51337,0.30495,0.65884,107,23032,215.252336448598,1,0.896884735202492,"Flanker_1","internal_consistency"
"584",0.8,200,2000,0,"subject","mean",0.5142,0.3204,0.66449,107,23032,215.252336448598,1,0.896884735202492,"Flanker_1","internal_consistency"
"585",0.9,200,2000,0,"subject","mean",0.51252,0.29543,0.65883,107,23032,215.252336448598,1,0.896884735202492,"Flanker_1","internal_consistency"
"586",0,0,3000,0,"subject","mean",0.50481,0.3196,0.64724,107,23236,217.158878504673,1,0.904828660436137,"Flanker_1","internal_consistency"
"587",0.8,0,3000,0,"subject","mean",0.5021,0.34719,0.6372,107,23236,217.158878504673,1,0.904828660436137,"Flanker_1","internal_consistency"
"588",0.9,0,3000,0,"subject","mean",0.5066,0.3559,0.63247,107,23236,217.158878504673,1,0.904828660436137,"Flanker_1","internal_consistency"
"589",0,100,3000,0,"subject","mean",0.4842,0.29672,0.63786,107,23111,215.990654205607,1,0.899961059190031,"Flanker_1","internal_consistency"
"590",0.8,100,3000,0,"subject","mean",0.48333,0.30634,0.62414,107,23111,215.990654205607,1,0.899961059190031,"Flanker_1","internal_consistency"
"591",0.9,100,3000,0,"subject","mean",0.48644,0.30304,0.63264,107,23111,215.990654205607,1,0.899961059190031,"Flanker_1","internal_consistency"
"592",0,200,3000,0,"subject","mean",0.43529,0.21124,0.59315,107,23057,215.485981308411,1,0.897858255451713,"Flanker_1","internal_consistency"
"593",0.8,200,3000,0,"subject","mean",0.44362,0.22773,0.60043,107,23057,215.485981308411,1,0.897858255451713,"Flanker_1","internal_consistency"
"594",0.9,200,3000,0,"subject","mean",0.43162,0.20193,0.60413,107,23057,215.485981308411,1,0.897858255451713,"Flanker_1","internal_consistency"
"595",0,0,2000,1,"subject","mean",0.78249,0.67817,0.85072,107,18993,177.504672897196,1,0.739602803738318,"Flanker_1","internal_consistency"
"596",0.8,0,2000,1,"subject","mean",0.78196,0.68883,0.84906,107,18993,177.504672897196,1,0.739602803738318,"Flanker_1","internal_consistency"
"597",0.9,0,2000,1,"subject","mean",0.77846,0.66232,0.85033,107,18993,177.504672897196,1,0.739602803738318,"Flanker_1","internal_consistency"
"598",0,100,2000,1,"subject","mean",0.79115,0.71587,0.84861,107,18897,176.607476635514,1,0.735864485981308,"Flanker_1","internal_consistency"
"599",0.8,100,2000,1,"subject","mean",0.79299,0.7124,0.85073,107,18897,176.607476635514,1,0.735864485981308,"Flanker_1","internal_consistency"
"600",0.9,100,2000,1,"subject","mean",0.79301,0.71813,0.85485,107,18897,176.607476635514,1,0.735864485981308,"Flanker_1","internal_consistency"
"601",0,200,2000,1,"subject","mean",0.76066,0.58867,0.84399,107,18863,176.289719626168,1,0.734540498442368,"Flanker_1","internal_consistency"
"602",0.8,200,2000,1,"subject","mean",0.7603,0.58335,0.84295,107,18863,176.289719626168,1,0.734540498442368,"Flanker_1","internal_consistency"
"603",0.9,200,2000,1,"subject","mean",0.76605,0.62046,0.8439,107,18863,176.289719626168,1,0.734540498442368,"Flanker_1","internal_consistency"
"604",0,0,3000,1,"subject","mean",0.77646,0.66033,0.84652,107,19555,182.757009345794,1,0.76148753894081,"Flanker_1","internal_consistency"
"605",0.8,0,3000,1,"subject","mean",0.77321,0.67678,0.83871,107,19555,182.757009345794,1,0.76148753894081,"Flanker_1","internal_consistency"
"606",0.9,0,3000,1,"subject","mean",0.7808,0.68656,0.84888,107,19555,182.757009345794,1,0.76148753894081,"Flanker_1","internal_consistency"
"607",0,100,3000,1,"subject","mean",0.78575,0.69849,0.84728,107,19459,181.859813084112,1,0.757749221183801,"Flanker_1","internal_consistency"
"608",0.8,100,3000,1,"subject","mean",0.7856,0.71126,0.84854,107,19459,181.859813084112,1,0.757749221183801,"Flanker_1","internal_consistency"
"609",0.9,100,3000,1,"subject","mean",0.78856,0.70661,0.84303,107,19459,181.859813084112,1,0.757749221183801,"Flanker_1","internal_consistency"
"610",0,200,3000,1,"subject","mean",0.75241,0.60401,0.83473,107,19430,181.588785046729,1,0.756619937694704,"Flanker_1","internal_consistency"
"611",0.8,200,3000,1,"subject","mean",0.75717,0.609,0.83864,107,19430,181.588785046729,1,0.756619937694704,"Flanker_1","internal_consistency"
"612",0.9,200,3000,1,"subject","mean",0.75222,0.57477,0.84141,107,19430,181.588785046729,1,0.756619937694704,"Flanker_1","internal_consistency"
"613",0,0,2000,2,"subject","mean",0.74374,0.6403,0.82223,107,22364,209.009345794393,1,0.870872274143302,"Flanker_1","internal_consistency"
"614",0.8,0,2000,2,"subject","mean",0.75177,0.66573,0.82655,107,22364,209.009345794393,1,0.870872274143302,"Flanker_1","internal_consistency"
"615",0.9,0,2000,2,"subject","mean",0.74354,0.64474,0.81774,107,22364,209.009345794393,1,0.870872274143302,"Flanker_1","internal_consistency"
"616",0,100,2000,2,"subject","mean",0.74444,0.65124,0.81597,107,22247,207.915887850467,1,0.866316199376947,"Flanker_1","internal_consistency"
"617",0.8,100,2000,2,"subject","mean",0.74663,0.65277,0.81611,107,22247,207.915887850467,1,0.866316199376947,"Flanker_1","internal_consistency"
"618",0.9,100,2000,2,"subject","mean",0.74313,0.63792,0.81571,107,22247,207.915887850467,1,0.866316199376947,"Flanker_1","internal_consistency"
"619",0,200,2000,2,"subject","mean",0.7093,0.56748,0.808,107,22198,207.457943925234,1,0.864408099688474,"Flanker_1","internal_consistency"
"620",0.8,200,2000,2,"subject","mean",0.71508,0.56858,0.80016,107,22198,207.457943925234,1,0.864408099688474,"Flanker_1","internal_consistency"
"621",0.9,200,2000,2,"subject","mean",0.71325,0.53775,0.80212,107,22198,207.457943925234,1,0.864408099688474,"Flanker_1","internal_consistency"
"622",0,0,3000,2,"subject","mean",0.72634,0.61309,0.80303,107,22469,209.990654205607,1,0.874961059190031,"Flanker_1","internal_consistency"
"623",0.8,0,3000,2,"subject","mean",0.72906,0.62736,0.80968,107,22469,209.990654205607,1,0.874961059190031,"Flanker_1","internal_consistency"
"624",0.9,0,3000,2,"subject","mean",0.72985,0.63142,0.80696,107,22469,209.990654205607,1,0.874961059190031,"Flanker_1","internal_consistency"
"625",0,100,3000,2,"subject","mean",0.72952,0.63389,0.80857,107,22352,208.897196261682,1,0.870404984423676,"Flanker_1","internal_consistency"
"626",0.8,100,3000,2,"subject","mean",0.72837,0.62301,0.8154,107,22352,208.897196261682,1,0.870404984423676,"Flanker_1","internal_consistency"
"627",0.9,100,3000,2,"subject","mean",0.72993,0.63608,0.81199,107,22352,208.897196261682,1,0.870404984423676,"Flanker_1","internal_consistency"
"628",0,200,3000,2,"subject","mean",0.70098,0.54782,0.79112,107,22300,208.411214953271,1,0.868380062305296,"Flanker_1","internal_consistency"
"629",0.8,200,3000,2,"subject","mean",0.69984,0.53812,0.79773,107,22300,208.411214953271,1,0.868380062305296,"Flanker_1","internal_consistency"
"630",0.9,200,3000,2,"subject","mean",0.69829,0.54969,0.79739,107,22300,208.411214953271,1,0.868380062305296,"Flanker_1","internal_consistency"
"631",0,0,2000,3,"subject","mean",0.71906,0.61385,0.79915,107,22832,213.383177570093,1,0.889096573208723,"Flanker_1","internal_consistency"
"632",0.8,0,2000,3,"subject","mean",0.71994,0.62094,0.80444,107,22832,213.383177570093,1,0.889096573208723,"Flanker_1","internal_consistency"
"633",0.9,0,2000,3,"subject","mean",0.71934,0.61943,0.80483,107,22832,213.383177570093,1,0.889096573208723,"Flanker_1","internal_consistency"
"634",0,100,2000,3,"subject","mean",0.70607,0.58661,0.7902,107,22710,212.242990654206,1,0.884345794392523,"Flanker_1","internal_consistency"
"635",0.8,100,2000,3,"subject","mean",0.70908,0.60191,0.79043,107,22710,212.242990654206,1,0.884345794392523,"Flanker_1","internal_consistency"
"636",0.9,100,2000,3,"subject","mean",0.70483,0.58832,0.78688,107,22710,212.242990654206,1,0.884345794392523,"Flanker_1","internal_consistency"
"637",0,200,2000,3,"subject","mean",0.69259,0.55268,0.78974,107,22653,211.710280373832,1,0.882126168224299,"Flanker_1","internal_consistency"
"638",0.8,200,2000,3,"subject","mean",0.6909,0.55389,0.78685,107,22653,211.710280373832,1,0.882126168224299,"Flanker_1","internal_consistency"
"639",0.9,200,2000,3,"subject","mean",0.68402,0.52694,0.78557,107,22653,211.710280373832,1,0.882126168224299,"Flanker_1","internal_consistency"
"640",0,0,3000,3,"subject","mean",0.71847,0.61185,0.80058,107,22882,213.85046728972,1,0.891043613707165,"Flanker_1","internal_consistency"
"641",0.8,0,3000,3,"subject","mean",0.72243,0.61784,0.80038,107,22882,213.85046728972,1,0.891043613707165,"Flanker_1","internal_consistency"
"642",0.9,0,3000,3,"subject","mean",0.72139,0.61681,0.80322,107,22882,213.85046728972,1,0.891043613707165,"Flanker_1","internal_consistency"
"643",0,100,3000,3,"subject","mean",0.70557,0.58794,0.7905,107,22760,212.710280373832,1,0.886292834890966,"Flanker_1","internal_consistency"
"644",0.8,100,3000,3,"subject","mean",0.70521,0.59177,0.79357,107,22760,212.710280373832,1,0.886292834890966,"Flanker_1","internal_consistency"
"645",0.9,100,3000,3,"subject","mean",0.70931,0.59304,0.7935,107,22760,212.710280373832,1,0.886292834890966,"Flanker_1","internal_consistency"
"646",0,200,3000,3,"subject","mean",0.68903,0.53513,0.80119,107,22704,212.18691588785,1,0.88411214953271,"Flanker_1","internal_consistency"
"647",0.8,200,3000,3,"subject","mean",0.68482,0.50597,0.78599,107,22704,212.18691588785,1,0.88411214953271,"Flanker_1","internal_consistency"
"648",0.9,200,3000,3,"subject","mean",0.68494,0.53987,0.78163,107,22704,212.18691588785,1,0.88411214953271,"Flanker_1","internal_consistency"
"649",0,0,2000,0,"trial","mean",0.57741,0.41827,0.69074,107,23211,216.92523364486,1,0.903855140186916,"Flanker_1","internal_consistency"
"650",0.8,0,2000,0,"trial","mean",0.57566,0.42971,0.6945,107,23211,216.92523364486,1,0.903855140186916,"Flanker_1","internal_consistency"
"651",0.9,0,2000,0,"trial","mean",0.56947,0.42367,0.68697,107,23211,216.92523364486,1,0.903855140186916,"Flanker_1","internal_consistency"
"652",0,100,2000,0,"trial","mean",0.55348,0.39559,0.68182,107,23086,215.757009345794,1,0.89898753894081,"Flanker_1","internal_consistency"
"653",0.8,100,2000,0,"trial","mean",0.55405,0.40433,0.68384,107,23086,215.757009345794,1,0.89898753894081,"Flanker_1","internal_consistency"
"654",0.9,100,2000,0,"trial","mean",0.55188,0.37344,0.6768,107,23086,215.757009345794,1,0.89898753894081,"Flanker_1","internal_consistency"
"655",0,200,2000,0,"trial","mean",0.50745,0.29444,0.66837,107,23032,215.252336448598,1,0.896884735202492,"Flanker_1","internal_consistency"
"656",0.8,200,2000,0,"trial","mean",0.50679,0.29582,0.65072,107,23032,215.252336448598,1,0.896884735202492,"Flanker_1","internal_consistency"
"657",0.9,200,2000,0,"trial","mean",0.51128,0.2875,0.65785,107,23032,215.252336448598,1,0.896884735202492,"Flanker_1","internal_consistency"
"658",0,0,3000,0,"trial","mean",0.50515,0.33248,0.65195,107,23236,217.158878504673,1,0.904828660436137,"Flanker_1","internal_consistency"
"659",0.8,0,3000,0,"trial","mean",0.50412,0.32409,0.6411,107,23236,217.158878504673,1,0.904828660436137,"Flanker_1","internal_consistency"
"660",0.9,0,3000,0,"trial","mean",0.50755,0.34936,0.63831,107,23236,217.158878504673,1,0.904828660436137,"Flanker_1","internal_consistency"
"661",0,100,3000,0,"trial","mean",0.48058,0.30996,0.62278,107,23111,215.990654205607,1,0.899961059190031,"Flanker_1","internal_consistency"
"662",0.8,100,3000,0,"trial","mean",0.48583,0.30027,0.62067,107,23111,215.990654205607,1,0.899961059190031,"Flanker_1","internal_consistency"
"663",0.9,100,3000,0,"trial","mean",0.48528,0.31521,0.62593,107,23111,215.990654205607,1,0.899961059190031,"Flanker_1","internal_consistency"
"664",0,200,3000,0,"trial","mean",0.4379,0.23654,0.60505,107,23057,215.485981308411,1,0.897858255451713,"Flanker_1","internal_consistency"
"665",0.8,200,3000,0,"trial","mean",0.42853,0.20264,0.60635,107,23057,215.485981308411,1,0.897858255451713,"Flanker_1","internal_consistency"
"666",0.9,200,3000,0,"trial","mean",0.43419,0.22916,0.60475,107,23057,215.485981308411,1,0.897858255451713,"Flanker_1","internal_consistency"
"667",0,0,2000,1,"trial","mean",0.89137,0.84274,0.9216,107,18869,176.345794392523,1,0.734774143302181,"Flanker_1","internal_consistency"
"668",0.8,0,2000,1,"trial","mean",0.89154,0.8413,0.92253,107,18869,176.345794392523,1,0.734774143302181,"Flanker_1","internal_consistency"
"669",0.9,0,2000,1,"trial","mean",0.89196,0.84506,0.9222,107,18869,176.345794392523,1,0.734774143302181,"Flanker_1","internal_consistency"
"670",0,100,2000,1,"trial","mean",0.89382,0.85433,0.92484,107,18782,175.532710280374,1,0.731386292834891,"Flanker_1","internal_consistency"
"671",0.8,100,2000,1,"trial","mean",0.89187,0.85208,0.92097,107,18782,175.532710280374,1,0.731386292834891,"Flanker_1","internal_consistency"
"672",0.9,100,2000,1,"trial","mean",0.89277,0.8581,0.92358,107,18782,175.532710280374,1,0.731386292834891,"Flanker_1","internal_consistency"
"673",0,200,2000,1,"trial","mean",0.87254,0.79017,0.91701,107,18743,175.168224299065,1,0.729867601246106,"Flanker_1","internal_consistency"
"674",0.8,200,2000,1,"trial","mean",0.87232,0.78716,0.91617,107,18743,175.168224299065,1,0.729867601246106,"Flanker_1","internal_consistency"
"675",0.9,200,2000,1,"trial","mean",0.87114,0.7807,0.91704,107,18743,175.168224299065,1,0.729867601246106,"Flanker_1","internal_consistency"
"676",0,0,3000,1,"trial","mean",0.88111,0.83337,0.91587,107,19239,179.803738317757,1,0.749182242990654,"Flanker_1","internal_consistency"
"677",0.8,0,3000,1,"trial","mean",0.88222,0.83091,0.91661,107,19239,179.803738317757,1,0.749182242990654,"Flanker_1","internal_consistency"
"678",0.9,0,3000,1,"trial","mean",0.88123,0.82699,0.91787,107,19239,179.803738317757,1,0.749182242990654,"Flanker_1","internal_consistency"
"679",0,100,3000,1,"trial","mean",0.88266,0.83953,0.91802,107,19152,178.990654205607,1,0.745794392523364,"Flanker_1","internal_consistency"
"680",0.8,100,3000,1,"trial","mean",0.88285,0.84169,0.91665,107,19152,178.990654205607,1,0.745794392523364,"Flanker_1","internal_consistency"
"681",0.9,100,3000,1,"trial","mean",0.88475,0.84774,0.9179,107,19152,178.990654205607,1,0.745794392523364,"Flanker_1","internal_consistency"
"682",0,200,3000,1,"trial","mean",0.86168,0.75975,0.91224,107,19114,178.635514018692,1,0.744314641744548,"Flanker_1","internal_consistency"
"683",0.8,200,3000,1,"trial","mean",0.86171,0.75101,0.91166,107,19114,178.635514018692,1,0.744314641744548,"Flanker_1","internal_consistency"
"684",0.9,200,3000,1,"trial","mean",0.85939,0.77742,0.9125,107,19114,178.635514018692,1,0.744314641744548,"Flanker_1","internal_consistency"
"685",0,0,2000,2,"trial","mean",0.77547,0.68501,0.84104,107,22316,208.560747663551,1,0.869003115264797,"Flanker_1","internal_consistency"
"686",0.8,0,2000,2,"trial","mean",0.77364,0.68496,0.83765,107,22316,208.560747663551,1,0.869003115264797,"Flanker_1","internal_consistency"
"687",0.9,0,2000,2,"trial","mean",0.77654,0.68828,0.84601,107,22316,208.560747663551,1,0.869003115264797,"Flanker_1","internal_consistency"
"688",0,100,2000,2,"trial","mean",0.77065,0.68345,0.83549,107,22194,207.420560747664,1,0.864252336448598,"Flanker_1","internal_consistency"
"689",0.8,100,2000,2,"trial","mean",0.77153,0.68082,0.83829,107,22194,207.420560747664,1,0.864252336448598,"Flanker_1","internal_consistency"
"690",0.9,100,2000,2,"trial","mean",0.77356,0.68357,0.84193,107,22194,207.420560747664,1,0.864252336448598,"Flanker_1","internal_consistency"
"691",0,200,2000,2,"trial","mean",0.75762,0.61888,0.83303,107,22146,206.971962616822,1,0.862383177570093,"Flanker_1","internal_consistency"
"692",0.8,200,2000,2,"trial","mean",0.75455,0.62574,0.83505,107,22146,206.971962616822,1,0.862383177570093,"Flanker_1","internal_consistency"
"693",0.9,200,2000,2,"trial","mean",0.75648,0.62565,0.82838,107,22146,206.971962616822,1,0.862383177570093,"Flanker_1","internal_consistency"
"694",0,0,3000,2,"trial","mean",0.77834,0.69699,0.84529,107,22387,209.224299065421,1,0.871767912772586,"Flanker_1","internal_consistency"
"695",0.8,0,3000,2,"trial","mean",0.77765,0.69722,0.84226,107,22387,209.224299065421,1,0.871767912772586,"Flanker_1","internal_consistency"
"696",0.9,0,3000,2,"trial","mean",0.77492,0.68328,0.84263,107,22387,209.224299065421,1,0.871767912772586,"Flanker_1","internal_consistency"
"697",0,100,3000,2,"trial","mean",0.77429,0.68084,0.83758,107,22265,208.084112149533,1,0.867017133956386,"Flanker_1","internal_consistency"
"698",0.8,100,3000,2,"trial","mean",0.77128,0.67064,0.83783,107,22265,208.084112149533,1,0.867017133956386,"Flanker_1","internal_consistency"
"699",0.9,100,3000,2,"trial","mean",0.77388,0.69211,0.83695,107,22265,208.084112149533,1,0.867017133956386,"Flanker_1","internal_consistency"
"700",0,200,3000,2,"trial","mean",0.75643,0.64263,0.83082,107,22216,207.626168224299,1,0.865109034267913,"Flanker_1","internal_consistency"
"701",0.8,200,3000,2,"trial","mean",0.74975,0.60749,0.83669,107,22216,207.626168224299,1,0.865109034267913,"Flanker_1","internal_consistency"
"702",0.9,200,3000,2,"trial","mean",0.75102,0.59388,0.82861,107,22216,207.626168224299,1,0.865109034267913,"Flanker_1","internal_consistency"
"703",0,0,2000,3,"trial","mean",0.74456,0.65227,0.81393,107,22805,213.130841121495,1,0.888045171339564,"Flanker_1","internal_consistency"
"704",0.8,0,2000,3,"trial","mean",0.73817,0.63394,0.81255,107,22805,213.130841121495,1,0.888045171339564,"Flanker_1","internal_consistency"
"705",0.9,0,2000,3,"trial","mean",0.73753,0.63424,0.81647,107,22805,213.130841121495,1,0.888045171339564,"Flanker_1","internal_consistency"
"706",0,100,2000,3,"trial","mean",0.73426,0.63232,0.81141,107,22682,211.981308411215,1,0.883255451713396,"Flanker_1","internal_consistency"
"707",0.8,100,2000,3,"trial","mean",0.73269,0.62938,0.81193,107,22682,211.981308411215,1,0.883255451713396,"Flanker_1","internal_consistency"
"708",0.9,100,2000,3,"trial","mean",0.73344,0.61521,0.81051,107,22682,211.981308411215,1,0.883255451713396,"Flanker_1","internal_consistency"
