"","ACC_cutoff","RT_min","RT_max","RT_sd_cutoff","split_by","averaging_method","estimate","low","high","nPar","nTrial","nTrialperPar","pPar","pTrial","task","measure"
"1",0,0,2000,0,"subject","mean",0.72106,0.62696,0.79514,107,46974,439.009345794393,1,0.914602803738318,"Stroop_1","internal_consistency"
"2",0.8,0,2000,0,"subject","mean",0.7213,0.62586,0.79851,107,46974,439.009345794393,1,0.914602803738318,"Stroop_1","internal_consistency"
"3",0.9,0,2000,0,"subject","mean",0.72151,0.62797,0.80287,107,46974,439.009345794393,1,0.914602803738318,"Stroop_1","internal_consistency"
"4",0,100,2000,0,"subject","mean",0.72767,0.63801,0.80199,107,46925,438.551401869159,1,0.913648753894081,"Stroop_1","internal_consistency"
"5",0.8,100,2000,0,"subject","mean",0.72894,0.62418,0.80516,107,46925,438.551401869159,1,0.913648753894081,"Stroop_1","internal_consistency"
"6",0.9,100,2000,0,"subject","mean",0.72904,0.63355,0.80455,107,46925,438.551401869159,1,0.913648753894081,"Stroop_1","internal_consistency"
"7",0,200,2000,0,"subject","mean",0.71228,0.6053,0.79611,107,46891,438.233644859813,1,0.912986760124611,"Stroop_1","internal_consistency"
"8",0.8,200,2000,0,"subject","mean",0.70442,0.56711,0.78626,107,46891,438.233644859813,1,0.912986760124611,"Stroop_1","internal_consistency"
"9",0.9,200,2000,0,"subject","mean",0.70886,0.57695,0.79485,107,46891,438.233644859813,1,0.912986760124611,"Stroop_1","internal_consistency"
"10",0,0,3000,0,"subject","mean",0.72545,0.6284,0.80313,107,47120,440.373831775701,1,0.917445482866044,"Stroop_1","internal_consistency"
"11",0.8,0,3000,0,"subject","mean",0.72609,0.61952,0.7962,107,47120,440.373831775701,1,0.917445482866044,"Stroop_1","internal_consistency"
"12",0.9,0,3000,0,"subject","mean",0.72608,0.63068,0.81048,107,47120,440.373831775701,1,0.917445482866044,"Stroop_1","internal_consistency"
"13",0,100,3000,0,"subject","mean",0.73674,0.64484,0.80712,107,47071,439.915887850467,1,0.916491433021807,"Stroop_1","internal_consistency"
"14",0.8,100,3000,0,"subject","mean",0.73188,0.64728,0.80703,107,47071,439.915887850467,1,0.916491433021807,"Stroop_1","internal_consistency"
"15",0.9,100,3000,0,"subject","mean",0.73303,0.64986,0.80629,107,47071,439.915887850467,1,0.916491433021807,"Stroop_1","internal_consistency"
"16",0,200,3000,0,"subject","mean",0.71088,0.5902,0.79586,107,47037,439.598130841121,1,0.915829439252336,"Stroop_1","internal_consistency"
"17",0.8,200,3000,0,"subject","mean",0.716,0.60287,0.79778,107,47037,439.598130841121,1,0.915829439252336,"Stroop_1","internal_consistency"
"18",0.9,200,3000,0,"subject","mean",0.71554,0.59176,0.80316,107,47037,439.598130841121,1,0.915829439252336,"Stroop_1","internal_consistency"
"19",0,0,2000,1,"subject","mean",0.67879,0.56567,0.76868,107,35186,328.841121495327,1,0.685085669781931,"Stroop_1","internal_consistency"
"20",0.8,0,2000,1,"subject","mean",0.68391,0.57063,0.75955,107,35186,328.841121495327,1,0.685085669781931,"Stroop_1","internal_consistency"
"21",0.9,0,2000,1,"subject","mean",0.68185,0.5701,0.7755,107,35186,328.841121495327,1,0.685085669781931,"Stroop_1","internal_consistency"
"22",0,100,2000,1,"subject","mean",0.71062,0.58576,0.79959,107,35135,328.364485981308,1,0.684092679127726,"Stroop_1","internal_consistency"
"23",0.8,100,2000,1,"subject","mean",0.71002,0.60171,0.79256,107,35135,328.364485981308,1,0.684092679127726,"Stroop_1","internal_consistency"
"24",0.9,100,2000,1,"subject","mean",0.70571,0.58934,0.78359,107,35135,328.364485981308,1,0.684092679127726,"Stroop_1","internal_consistency"
"25",0,200,2000,1,"subject","mean",0.71967,0.60013,0.80196,107,35103,328.065420560748,1,0.683469626168224,"Stroop_1","internal_consistency"
"26",0.8,200,2000,1,"subject","mean",0.72956,0.62301,0.80316,107,35103,328.065420560748,1,0.683469626168224,"Stroop_1","internal_consistency"
"27",0.9,200,2000,1,"subject","mean",0.72549,0.59329,0.80586,107,35103,328.065420560748,1,0.683469626168224,"Stroop_1","internal_consistency"
"28",0,0,3000,1,"subject","mean",0.74488,0.65796,0.81659,107,36190,338.224299065421,1,0.704633956386293,"Stroop_1","internal_consistency"
"29",0.8,0,3000,1,"subject","mean",0.74215,0.66426,0.81994,107,36190,338.224299065421,1,0.704633956386293,"Stroop_1","internal_consistency"
"30",0.9,0,3000,1,"subject","mean",0.742,0.66536,0.81404,107,36190,338.224299065421,1,0.704633956386293,"Stroop_1","internal_consistency"
"31",0,100,3000,1,"subject","mean",0.7606,0.66169,0.83504,107,36147,337.822429906542,1,0.703796728971963,"Stroop_1","internal_consistency"
"32",0.8,100,3000,1,"subject","mean",0.76139,0.67293,0.83372,107,36147,337.822429906542,1,0.703796728971963,"Stroop_1","internal_consistency"
"33",0.9,100,3000,1,"subject","mean",0.76138,0.66962,0.83453,107,36147,337.822429906542,1,0.703796728971963,"Stroop_1","internal_consistency"
"34",0,200,3000,1,"subject","mean",0.77368,0.68211,0.8382,107,36116,337.532710280374,1,0.703193146417445,"Stroop_1","internal_consistency"
"35",0.8,200,3000,1,"subject","mean",0.77314,0.68648,0.84586,107,36116,337.532710280374,1,0.703193146417445,"Stroop_1","internal_consistency"
"36",0.9,200,3000,1,"subject","mean",0.76932,0.67391,0.83994,107,36116,337.532710280374,1,0.703193146417445,"Stroop_1","internal_consistency"
"37",0,0,2000,2,"subject","mean",0.75698,0.67352,0.81803,107,44853,419.18691588785,1,0.873306074766355,"Stroop_1","internal_consistency"
"38",0.8,0,2000,2,"subject","mean",0.752,0.67157,0.82132,107,44853,419.18691588785,1,0.873306074766355,"Stroop_1","internal_consistency"
"39",0.9,0,2000,2,"subject","mean",0.75737,0.67751,0.8186,107,44853,419.18691588785,1,0.873306074766355,"Stroop_1","internal_consistency"
"40",0,100,2000,2,"subject","mean",0.76438,0.67713,0.83221,107,44811,418.794392523364,1,0.872488317757009,"Stroop_1","internal_consistency"
"41",0.8,100,2000,2,"subject","mean",0.76369,0.67788,0.83507,107,44811,418.794392523364,1,0.872488317757009,"Stroop_1","internal_consistency"
"42",0.9,100,2000,2,"subject","mean",0.76395,0.67712,0.83279,107,44811,418.794392523364,1,0.872488317757009,"Stroop_1","internal_consistency"
"43",0,200,2000,2,"subject","mean",0.76135,0.66229,0.83544,107,44779,418.495327102804,1,0.871865264797508,"Stroop_1","internal_consistency"
"44",0.8,200,2000,2,"subject","mean",0.76197,0.67486,0.8361,107,44779,418.495327102804,1,0.871865264797508,"Stroop_1","internal_consistency"
"45",0.9,200,2000,2,"subject","mean",0.76228,0.66945,0.83432,107,44779,418.495327102804,1,0.871865264797508,"Stroop_1","internal_consistency"
"46",0,0,3000,2,"subject","mean",0.76324,0.68489,0.82561,107,45101,421.504672897196,1,0.878134735202492,"Stroop_1","internal_consistency"
"47",0.8,0,3000,2,"subject","mean",0.76491,0.69478,0.83186,107,45101,421.504672897196,1,0.878134735202492,"Stroop_1","internal_consistency"
"48",0.9,0,3000,2,"subject","mean",0.7666,0.692,0.82789,107,45101,421.504672897196,1,0.878134735202492,"Stroop_1","internal_consistency"
"49",0,100,3000,2,"subject","mean",0.77427,0.69019,0.83923,107,45058,421.102803738318,1,0.877297507788162,"Stroop_1","internal_consistency"
"50",0.8,100,3000,2,"subject","mean",0.77295,0.69247,0.83777,107,45058,421.102803738318,1,0.877297507788162,"Stroop_1","internal_consistency"
"51",0.9,100,3000,2,"subject","mean",0.7745,0.68772,0.83882,107,45058,421.102803738318,1,0.877297507788162,"Stroop_1","internal_consistency"
"52",0,200,3000,2,"subject","mean",0.7737,0.68051,0.83707,107,45026,420.803738317757,1,0.87667445482866,"Stroop_1","internal_consistency"
"53",0.8,200,3000,2,"subject","mean",0.76637,0.67929,0.8362,107,45026,420.803738317757,1,0.87667445482866,"Stroop_1","internal_consistency"
"54",0.9,200,3000,2,"subject","mean",0.77275,0.6865,0.84064,107,45026,420.803738317757,1,0.87667445482866,"Stroop_1","internal_consistency"
"55",0,0,2000,3,"subject","mean",0.75655,0.67944,0.82784,107,46244,432.18691588785,1,0.900389408099688,"Stroop_1","internal_consistency"
"56",0.8,0,2000,3,"subject","mean",0.75245,0.65868,0.81743,107,46244,432.18691588785,1,0.900389408099688,"Stroop_1","internal_consistency"
"57",0.9,0,2000,3,"subject","mean",0.74898,0.66108,0.81668,107,46244,432.18691588785,1,0.900389408099688,"Stroop_1","internal_consistency"
"58",0,100,2000,3,"subject","mean",0.7567,0.67835,0.82217,107,46197,431.747663551402,1,0.899474299065421,"Stroop_1","internal_consistency"
"59",0.8,100,2000,3,"subject","mean",0.75796,0.66972,0.82811,107,46197,431.747663551402,1,0.899474299065421,"Stroop_1","internal_consistency"
"60",0.9,100,2000,3,"subject","mean",0.75957,0.68192,0.82638,107,46197,431.747663551402,1,0.899474299065421,"Stroop_1","internal_consistency"
"61",0,200,2000,3,"subject","mean",0.74371,0.63619,0.81781,107,46163,431.429906542056,1,0.89881230529595,"Stroop_1","internal_consistency"
"62",0.8,200,2000,3,"subject","mean",0.74335,0.63064,0.81694,107,46163,431.429906542056,1,0.89881230529595,"Stroop_1","internal_consistency"
"63",0.9,200,2000,3,"subject","mean",0.74195,0.6201,0.8203,107,46163,431.429906542056,1,0.89881230529595,"Stroop_1","internal_consistency"
"64",0,0,3000,3,"subject","mean",0.75526,0.66717,0.82546,107,46372,433.383177570093,1,0.902881619937695,"Stroop_1","internal_consistency"
"65",0.8,0,3000,3,"subject","mean",0.75913,0.67975,0.8225,107,46372,433.383177570093,1,0.902881619937695,"Stroop_1","internal_consistency"
"66",0.9,0,3000,3,"subject","mean",0.75747,0.6818,0.82326,107,46372,433.383177570093,1,0.902881619937695,"Stroop_1","internal_consistency"
"67",0,100,3000,3,"subject","mean",0.759,0.6814,0.83326,107,46324,432.934579439252,1,0.901947040498442,"Stroop_1","internal_consistency"
"68",0.8,100,3000,3,"subject","mean",0.7625,0.67944,0.83246,107,46324,432.934579439252,1,0.901947040498442,"Stroop_1","internal_consistency"
"69",0.9,100,3000,3,"subject","mean",0.7574,0.67492,0.82689,107,46324,432.934579439252,1,0.901947040498442,"Stroop_1","internal_consistency"
"70",0,200,3000,3,"subject","mean",0.74761,0.6414,0.82273,107,46290,432.616822429907,1,0.901285046728972,"Stroop_1","internal_consistency"
"71",0.8,200,3000,3,"subject","mean",0.74777,0.63326,0.82165,107,46290,432.616822429907,1,0.901285046728972,"Stroop_1","internal_consistency"
"72",0.9,200,3000,3,"subject","mean",0.74854,0.6369,0.8178,107,46290,432.616822429907,1,0.901285046728972,"Stroop_1","internal_consistency"
"73",0,0,2000,0,"trial","mean",0.7212,0.62833,0.79788,107,46974,439.009345794393,1,0.914602803738318,"Stroop_1","internal_consistency"
"74",0.8,0,2000,0,"trial","mean",0.71978,0.62923,0.79843,107,46974,439.009345794393,1,0.914602803738318,"Stroop_1","internal_consistency"
"75",0.9,0,2000,0,"trial","mean",0.72148,0.61749,0.79914,107,46974,439.009345794393,1,0.914602803738318,"Stroop_1","internal_consistency"
"76",0,100,2000,0,"trial","mean",0.72896,0.62874,0.80246,107,46925,438.551401869159,1,0.913648753894081,"Stroop_1","internal_consistency"
"77",0.8,100,2000,0,"trial","mean",0.72806,0.63706,0.79723,107,46925,438.551401869159,1,0.913648753894081,"Stroop_1","internal_consistency"
"78",0.9,100,2000,0,"trial","mean",0.72806,0.63347,0.80025,107,46925,438.551401869159,1,0.913648753894081,"Stroop_1","internal_consistency"
"79",0,200,2000,0,"trial","mean",0.71035,0.57378,0.79943,107,46891,438.233644859813,1,0.912986760124611,"Stroop_1","internal_consistency"
"80",0.8,200,2000,0,"trial","mean",0.71036,0.55822,0.79901,107,46891,438.233644859813,1,0.912986760124611,"Stroop_1","internal_consistency"
"81",0.9,200,2000,0,"trial","mean",0.71225,0.59997,0.80129,107,46891,438.233644859813,1,0.912986760124611,"Stroop_1","internal_consistency"
"82",0,0,3000,0,"trial","mean",0.72781,0.64477,0.80468,107,47120,440.373831775701,1,0.917445482866044,"Stroop_1","internal_consistency"
"83",0.8,0,3000,0,"trial","mean",0.7242,0.63059,0.80391,107,47120,440.373831775701,1,0.917445482866044,"Stroop_1","internal_consistency"
"84",0.9,0,3000,0,"trial","mean",0.72359,0.62984,0.79801,107,47120,440.373831775701,1,0.917445482866044,"Stroop_1","internal_consistency"
"85",0,100,3000,0,"trial","mean",0.73127,0.64315,0.81141,107,47071,439.915887850467,1,0.916491433021807,"Stroop_1","internal_consistency"
"86",0.8,100,3000,0,"trial","mean",0.73301,0.64112,0.80806,107,47071,439.915887850467,1,0.916491433021807,"Stroop_1","internal_consistency"
"87",0.9,100,3000,0,"trial","mean",0.73087,0.64192,0.80237,107,47071,439.915887850467,1,0.916491433021807,"Stroop_1","internal_consistency"
"88",0,200,3000,0,"trial","mean",0.71238,0.58983,0.8002,107,47037,439.598130841121,1,0.915829439252336,"Stroop_1","internal_consistency"
"89",0.8,200,3000,0,"trial","mean",0.71569,0.60669,0.7974,107,47037,439.598130841121,1,0.915829439252336,"Stroop_1","internal_consistency"
"90",0.9,200,3000,0,"trial","mean",0.71405,0.60142,0.79489,107,47037,439.598130841121,1,0.915829439252336,"Stroop_1","internal_consistency"
"91",0,0,2000,1,"trial","mean",0.91378,0.88337,0.93759,107,35055,327.616822429907,1,0.682535046728972,"Stroop_1","internal_consistency"
"92",0.8,0,2000,1,"trial","mean",0.9132,0.88354,0.93629,107,35055,327.616822429907,1,0.682535046728972,"Stroop_1","internal_consistency"
"93",0.9,0,2000,1,"trial","mean",0.91123,0.88205,0.93557,107,35055,327.616822429907,1,0.682535046728972,"Stroop_1","internal_consistency"
"94",0,100,2000,1,"trial","mean",0.92471,0.89788,0.94878,107,34998,327.084112149533,1,0.68142523364486,"Stroop_1","internal_consistency"
"95",0.8,100,2000,1,"trial","mean",0.92395,0.89807,0.94534,107,34998,327.084112149533,1,0.68142523364486,"Stroop_1","internal_consistency"
"96",0.9,100,2000,1,"trial","mean",0.92376,0.89779,0.94503,107,34998,327.084112149533,1,0.68142523364486,"Stroop_1","internal_consistency"
"97",0,200,2000,1,"trial","mean",0.91964,0.8863,0.94383,107,34973,326.85046728972,1,0.680938473520249,"Stroop_1","internal_consistency"
"98",0.8,200,2000,1,"trial","mean",0.91865,0.88336,0.94217,107,34973,326.85046728972,1,0.680938473520249,"Stroop_1","internal_consistency"
"99",0.9,200,2000,1,"trial","mean",0.91994,0.88735,0.94455,107,34973,326.85046728972,1,0.680938473520249,"Stroop_1","internal_consistency"
"100",0,0,3000,1,"trial","mean",0.91262,0.88235,0.93803,107,35917,335.672897196262,1,0.699318535825545,"Stroop_1","internal_consistency"
"101",0.8,0,3000,1,"trial","mean",0.91339,0.87934,0.93714,107,35917,335.672897196262,1,0.699318535825545,"Stroop_1","internal_consistency"
"102",0.9,0,3000,1,"trial","mean",0.91319,0.88504,0.93757,107,35917,335.672897196262,1,0.699318535825545,"Stroop_1","internal_consistency"
"103",0,100,3000,1,"trial","mean",0.92355,0.89647,0.94281,107,35857,335.11214953271,1,0.69815031152648,"Stroop_1","internal_consistency"
"104",0.8,100,3000,1,"trial","mean",0.92421,0.89681,0.94618,107,35857,335.11214953271,1,0.69815031152648,"Stroop_1","internal_consistency"
"105",0.9,100,3000,1,"trial","mean",0.92425,0.8956,0.94602,107,35857,335.11214953271,1,0.69815031152648,"Stroop_1","internal_consistency"
"106",0,200,3000,1,"trial","mean",0.91933,0.88931,0.94282,107,35831,334.869158878505,1,0.697644080996885,"Stroop_1","internal_consistency"
"107",0.8,200,3000,1,"trial","mean",0.91978,0.88643,0.94333,107,35831,334.869158878505,1,0.697644080996885,"Stroop_1","internal_consistency"
"108",0.9,200,3000,1,"trial","mean",0.92125,0.89194,0.94397,107,35831,334.869158878505,1,0.697644080996885,"Stroop_1","internal_consistency"
"109",0,0,2000,2,"trial","mean",0.82191,0.76504,0.86955,107,44867,419.317757009346,1,0.873578660436137,"Stroop_1","internal_consistency"
"110",0.8,0,2000,2,"trial","mean",0.82251,0.76648,0.86962,107,44867,419.317757009346,1,0.873578660436137,"Stroop_1","internal_consistency"
"111",0.9,0,2000,2,"trial","mean",0.8219,0.76447,0.86874,107,44867,419.317757009346,1,0.873578660436137,"Stroop_1","internal_consistency"
"112",0,100,2000,2,"trial","mean",0.83199,0.77029,0.87909,107,44824,418.915887850467,1,0.872741433021807,"Stroop_1","internal_consistency"
"113",0.8,100,2000,2,"trial","mean",0.83424,0.77184,0.88416,107,44824,418.915887850467,1,0.872741433021807,"Stroop_1","internal_consistency"
"114",0.9,100,2000,2,"trial","mean",0.83422,0.78194,0.88158,107,44824,418.915887850467,1,0.872741433021807,"Stroop_1","internal_consistency"
"115",0,200,2000,2,"trial","mean",0.81452,0.74073,0.87092,107,44792,418.616822429907,1,0.872118380062305,"Stroop_1","internal_consistency"
"116",0.8,200,2000,2,"trial","mean",0.81255,0.73144,0.86723,107,44792,418.616822429907,1,0.872118380062305,"Stroop_1","internal_consistency"
"117",0.9,200,2000,2,"trial","mean",0.81479,0.7272,0.8687,107,44792,418.616822429907,1,0.872118380062305,"Stroop_1","internal_consistency"
"118",0,0,3000,2,"trial","mean",0.82548,0.76499,0.87353,107,45078,421.289719626168,1,0.87768691588785,"Stroop_1","internal_consistency"
"119",0.8,0,3000,2,"trial","mean",0.8263,0.77246,0.87084,107,45078,421.289719626168,1,0.87768691588785,"Stroop_1","internal_consistency"
"120",0.9,0,3000,2,"trial","mean",0.8245,0.76682,0.87171,107,45078,421.289719626168,1,0.87768691588785,"Stroop_1","internal_consistency"
"121",0,100,3000,2,"trial","mean",0.83631,0.78155,0.88233,107,45034,420.878504672897,1,0.876830218068536,"Stroop_1","internal_consistency"
"122",0.8,100,3000,2,"trial","mean",0.83582,0.78511,0.88067,107,45034,420.878504672897,1,0.876830218068536,"Stroop_1","internal_consistency"
"123",0.9,100,3000,2,"trial","mean",0.83431,0.77598,0.87794,107,45034,420.878504672897,1,0.876830218068536,"Stroop_1","internal_consistency"
"124",0,200,3000,2,"trial","mean",0.81906,0.74114,0.8762,107,45003,420.588785046729,1,0.876226635514019,"Stroop_1","internal_consistency"
"125",0.8,200,3000,2,"trial","mean",0.8161,0.73734,0.86711,107,45003,420.588785046729,1,0.876226635514019,"Stroop_1","internal_consistency"
"126",0.9,200,3000,2,"trial","mean",0.81423,0.73905,0.86953,107,45003,420.588785046729,1,0.876226635514019,"Stroop_1","internal_consistency"
"127",0,0,2000,3,"trial","mean",0.80049,0.73452,0.85303,107,46259,432.327102803738,1,0.900681464174455,"Stroop_1","internal_consistency"
"128",0.8,0,2000,3,"trial","mean",0.79793,0.73796,0.85519,107,46259,432.327102803738,1,0.900681464174455,"Stroop_1","internal_consistency"
"129",0.9,0,2000,3,"trial","mean",0.80022,0.73379,0.85643,107,46259,432.327102803738,1,0.900681464174455,"Stroop_1","internal_consistency"
"130",0,100,2000,3,"trial","mean",0.80447,0.73255,0.86484,107,46213,431.897196261682,1,0.899785825545171,"Stroop_1","internal_consistency"
"131",0.8,100,2000,3,"trial","mean",0.8063,0.73873,0.86069,107,46213,431.897196261682,1,0.899785825545171,"Stroop_1","internal_consistency"
"132",0.9,100,2000,3,"trial","mean",0.80487,0.73941,0.85873,107,46213,431.897196261682,1,0.899785825545171,"Stroop_1","internal_consistency"
"133",0,200,2000,3,"trial","mean",0.79566,0.71885,0.85184,107,46179,431.579439252336,1,0.899123831775701,"Stroop_1","internal_consistency"
"134",0.8,200,2000,3,"trial","mean",0.79537,0.70518,0.85349,107,46179,431.579439252336,1,0.899123831775701,"Stroop_1","internal_consistency"
"135",0.9,200,2000,3,"trial","mean",0.79296,0.70651,0.85208,107,46179,431.579439252336,1,0.899123831775701,"Stroop_1","internal_consistency"
"136",0,0,3000,3,"trial","mean",0.8029,0.73907,0.86087,107,46379,433.448598130841,1,0.903017912772586,"Stroop_1","internal_consistency"
"137",0.8,0,3000,3,"trial","mean",0.80355,0.73966,0.85567,107,46379,433.448598130841,1,0.903017912772586,"Stroop_1","internal_consistency"
"138",0.9,0,3000,3,"trial","mean",0.80049,0.7348,0.85879,107,46379,433.448598130841,1,0.903017912772586,"Stroop_1","internal_consistency"
"139",0,100,3000,3,"trial","mean",0.80959,0.73764,0.86323,107,46332,433.009345794393,1,0.902102803738318,"Stroop_1","internal_consistency"
"140",0.8,100,3000,3,"trial","mean",0.80965,0.74176,0.86247,107,46332,433.009345794393,1,0.902102803738318,"Stroop_1","internal_consistency"
"141",0.9,100,3000,3,"trial","mean",0.81152,0.74253,0.86909,107,46332,433.009345794393,1,0.902102803738318,"Stroop_1","internal_consistency"
"142",0,200,3000,3,"trial","mean",0.80013,0.72286,0.85586,107,46297,432.682242990654,1,0.901421339563863,"Stroop_1","internal_consistency"
"143",0.8,200,3000,3,"trial","mean",0.80289,0.71742,0.86486,107,46297,432.682242990654,1,0.901421339563863,"Stroop_1","internal_consistency"
"144",0.9,200,3000,3,"trial","mean",0.80085,0.72512,0.85866,107,46297,432.682242990654,1,0.901421339563863,"Stroop_1","internal_consistency"
"145",0,0,2000,0,"subject","median",0.7545,0.66904,0.81905,107,46974,439.009345794393,1,0.914602803738318,"Stroop_1","internal_consistency"
"146",0.8,0,2000,0,"subject","median",0.75333,0.66603,0.82587,107,46974,439.009345794393,1,0.914602803738318,"Stroop_1","internal_consistency"
"147",0.9,0,2000,0,"subject","median",0.75509,0.67251,0.819,107,46974,439.009345794393,1,0.914602803738318,"Stroop_1","internal_consistency"
"148",0,100,2000,0,"subject","median",0.76357,0.67323,0.83502,107,46925,438.551401869159,1,0.913648753894081,"Stroop_1","internal_consistency"
"149",0.8,100,2000,0,"subject","median",0.76324,0.67468,0.83387,107,46925,438.551401869159,1,0.913648753894081,"Stroop_1","internal_consistency"
"150",0.9,100,2000,0,"subject","median",0.76401,0.66514,0.83492,107,46925,438.551401869159,1,0.913648753894081,"Stroop_1","internal_consistency"
"151",0,200,2000,0,"subject","median",0.76112,0.66149,0.83382,107,46891,438.233644859813,1,0.912986760124611,"Stroop_1","internal_consistency"
"152",0.8,200,2000,0,"subject","median",0.75572,0.65628,0.8308,107,46891,438.233644859813,1,0.912986760124611,"Stroop_1","internal_consistency"
"153",0.9,200,2000,0,"subject","median",0.76041,0.67055,0.83669,107,46891,438.233644859813,1,0.912986760124611,"Stroop_1","internal_consistency"
"154",0,0,3000,0,"subject","median",0.76515,0.68648,0.83233,107,47120,440.373831775701,1,0.917445482866044,"Stroop_1","internal_consistency"
"155",0.8,0,3000,0,"subject","median",0.76444,0.67935,0.82872,107,47120,440.373831775701,1,0.917445482866044,"Stroop_1","internal_consistency"
"156",0.9,0,3000,0,"subject","median",0.76247,0.67612,0.82732,107,47120,440.373831775701,1,0.917445482866044,"Stroop_1","internal_consistency"
"157",0,100,3000,0,"subject","median",0.77095,0.68618,0.84319,107,47071,439.915887850467,1,0.916491433021807,"Stroop_1","internal_consistency"
"158",0.8,100,3000,0,"subject","median",0.77338,0.67499,0.83738,107,47071,439.915887850467,1,0.916491433021807,"Stroop_1","internal_consistency"
"159",0.9,100,3000,0,"subject","median",0.77048,0.67221,0.83848,107,47071,439.915887850467,1,0.916491433021807,"Stroop_1","internal_consistency"
"160",0,200,3000,0,"subject","median",0.76716,0.65137,0.83626,107,47037,439.598130841121,1,0.915829439252336,"Stroop_1","internal_consistency"
"161",0.8,200,3000,0,"subject","median",0.76723,0.67118,0.83558,107,47037,439.598130841121,1,0.915829439252336,"Stroop_1","internal_consistency"
"162",0.9,200,3000,0,"subject","median",0.76988,0.67552,0.84111,107,47037,439.598130841121,1,0.915829439252336,"Stroop_1","internal_consistency"
"163",0,0,2000,1,"subject","median",0.67674,0.56992,0.76452,107,35186,328.841121495327,1,0.685085669781931,"Stroop_1","internal_consistency"
"164",0.8,0,2000,1,"subject","median",0.68129,0.57887,0.77276,107,35186,328.841121495327,1,0.685085669781931,"Stroop_1","internal_consistency"
"165",0.9,0,2000,1,"subject","median",0.68,0.56979,0.77202,107,35186,328.841121495327,1,0.685085669781931,"Stroop_1","internal_consistency"
"166",0,100,2000,1,"subject","median",0.69737,0.57478,0.78909,107,35135,328.364485981308,1,0.684092679127726,"Stroop_1","internal_consistency"
"167",0.8,100,2000,1,"subject","median",0.69182,0.5657,0.7836,107,35135,328.364485981308,1,0.684092679127726,"Stroop_1","internal_consistency"
"168",0.9,100,2000,1,"subject","median",0.69057,0.55203,0.78199,107,35135,328.364485981308,1,0.684092679127726,"Stroop_1","internal_consistency"
"169",0,200,2000,1,"subject","median",0.71536,0.56376,0.80996,107,35103,328.065420560748,1,0.683469626168224,"Stroop_1","internal_consistency"
"170",0.8,200,2000,1,"subject","median",0.70758,0.53619,0.8011,107,35103,328.065420560748,1,0.683469626168224,"Stroop_1","internal_consistency"
"171",0.9,200,2000,1,"subject","median",0.71079,0.56244,0.8126,107,35103,328.065420560748,1,0.683469626168224,"Stroop_1","internal_consistency"
"172",0,0,3000,1,"subject","median",0.73589,0.63622,0.80669,107,36190,338.224299065421,1,0.704633956386293,"Stroop_1","internal_consistency"
"173",0.8,0,3000,1,"subject","median",0.73409,0.64405,0.80276,107,36190,338.224299065421,1,0.704633956386293,"Stroop_1","internal_consistency"
"174",0.9,0,3000,1,"subject","median",0.7338,0.64781,0.80785,107,36190,338.224299065421,1,0.704633956386293,"Stroop_1","internal_consistency"
"175",0,100,3000,1,"subject","median",0.73792,0.60336,0.82271,107,36147,337.822429906542,1,0.703796728971963,"Stroop_1","internal_consistency"
"176",0.8,100,3000,1,"subject","median",0.73927,0.62089,0.81427,107,36147,337.822429906542,1,0.703796728971963,"Stroop_1","internal_consistency"
"177",0.9,100,3000,1,"subject","median",0.74075,0.62202,0.81968,107,36147,337.822429906542,1,0.703796728971963,"Stroop_1","internal_consistency"
"178",0,200,3000,1,"subject","median",0.75858,0.6434,0.83612,107,36116,337.532710280374,1,0.703193146417445,"Stroop_1","internal_consistency"
"179",0.8,200,3000,1,"subject","median",0.75134,0.6199,0.83774,107,36116,337.532710280374,1,0.703193146417445,"Stroop_1","internal_consistency"
"180",0.9,200,3000,1,"subject","median",0.75595,0.63613,0.83294,107,36116,337.532710280374,1,0.703193146417445,"Stroop_1","internal_consistency"
"181",0,0,2000,2,"subject","median",0.74575,0.66168,0.81396,107,44853,419.18691588785,1,0.873306074766355,"Stroop_1","internal_consistency"
"182",0.8,0,2000,2,"subject","median",0.74434,0.65363,0.81854,107,44853,419.18691588785,1,0.873306074766355,"Stroop_1","internal_consistency"
"183",0.9,0,2000,2,"subject","median",0.74424,0.65633,0.81729,107,44853,419.18691588785,1,0.873306074766355,"Stroop_1","internal_consistency"
"184",0,100,2000,2,"subject","median",0.75747,0.64987,0.83662,107,44811,418.794392523364,1,0.872488317757009,"Stroop_1","internal_consistency"
"185",0.8,100,2000,2,"subject","median",0.75888,0.66643,0.83559,107,44811,418.794392523364,1,0.872488317757009,"Stroop_1","internal_consistency"
"186",0.9,100,2000,2,"subject","median",0.75451,0.65276,0.82795,107,44811,418.794392523364,1,0.872488317757009,"Stroop_1","internal_consistency"
"187",0,200,2000,2,"subject","median",0.76069,0.6557,0.83045,107,44779,418.495327102804,1,0.871865264797508,"Stroop_1","internal_consistency"
"188",0.8,200,2000,2,"subject","median",0.75537,0.66041,0.82912,107,44779,418.495327102804,1,0.871865264797508,"Stroop_1","internal_consistency"
"189",0.9,200,2000,2,"subject","median",0.76077,0.66277,0.83544,107,44779,418.495327102804,1,0.871865264797508,"Stroop_1","internal_consistency"
"190",0,0,3000,2,"subject","median",0.75564,0.66638,0.81968,107,45101,421.504672897196,1,0.878134735202492,"Stroop_1","internal_consistency"
"191",0.8,0,3000,2,"subject","median",0.75561,0.68105,0.82009,107,45101,421.504672897196,1,0.878134735202492,"Stroop_1","internal_consistency"
"192",0.9,0,3000,2,"subject","median",0.75313,0.66746,0.81949,107,45101,421.504672897196,1,0.878134735202492,"Stroop_1","internal_consistency"
"193",0,100,3000,2,"subject","median",0.76028,0.65855,0.838,107,45058,421.102803738318,1,0.877297507788162,"Stroop_1","internal_consistency"
"194",0.8,100,3000,2,"subject","median",0.761,0.67543,0.83003,107,45058,421.102803738318,1,0.877297507788162,"Stroop_1","internal_consistency"
"195",0.9,100,3000,2,"subject","median",0.76315,0.66761,0.83257,107,45058,421.102803738318,1,0.877297507788162,"Stroop_1","internal_consistency"
"196",0,200,3000,2,"subject","median",0.76749,0.65049,0.83422,107,45026,420.803738317757,1,0.87667445482866,"Stroop_1","internal_consistency"
"197",0.8,200,3000,2,"subject","median",0.76201,0.66327,0.83518,107,45026,420.803738317757,1,0.87667445482866,"Stroop_1","internal_consistency"
"198",0.9,200,3000,2,"subject","median",0.76784,0.65974,0.84007,107,45026,420.803738317757,1,0.87667445482866,"Stroop_1","internal_consistency"
"199",0,0,2000,3,"subject","median",0.75143,0.66549,0.81858,107,46244,432.18691588785,1,0.900389408099688,"Stroop_1","internal_consistency"
"200",0.8,0,2000,3,"subject","median",0.75412,0.67048,0.82301,107,46244,432.18691588785,1,0.900389408099688,"Stroop_1","internal_consistency"
"201",0.9,0,2000,3,"subject","median",0.75211,0.66516,0.82122,107,46244,432.18691588785,1,0.900389408099688,"Stroop_1","internal_consistency"
"202",0,100,2000,3,"subject","median",0.75954,0.67007,0.82947,107,46197,431.747663551402,1,0.899474299065421,"Stroop_1","internal_consistency"
"203",0.8,100,2000,3,"subject","median",0.75801,0.65815,0.83627,107,46197,431.747663551402,1,0.899474299065421,"Stroop_1","internal_consistency"
"204",0.9,100,2000,3,"subject","median",0.76673,0.67537,0.83877,107,46197,431.747663551402,1,0.899474299065421,"Stroop_1","internal_consistency"
"205",0,200,2000,3,"subject","median",0.75829,0.66138,0.83302,107,46163,431.429906542056,1,0.89881230529595,"Stroop_1","internal_consistency"
"206",0.8,200,2000,3,"subject","median",0.75853,0.66378,0.83361,107,46163,431.429906542056,1,0.89881230529595,"Stroop_1","internal_consistency"
"207",0.9,200,2000,3,"subject","median",0.75708,0.65115,0.83436,107,46163,431.429906542056,1,0.89881230529595,"Stroop_1","internal_consistency"
"208",0,0,3000,3,"subject","median",0.76017,0.68409,0.82804,107,46372,433.383177570093,1,0.902881619937695,"Stroop_1","internal_consistency"
"209",0.8,0,3000,3,"subject","median",0.75867,0.68126,0.82609,107,46372,433.383177570093,1,0.902881619937695,"Stroop_1","internal_consistency"
"210",0.9,0,3000,3,"subject","median",0.76017,0.68696,0.82837,107,46372,433.383177570093,1,0.902881619937695,"Stroop_1","internal_consistency"
"211",0,100,3000,3,"subject","median",0.76836,0.6731,0.8418,107,46324,432.934579439252,1,0.901947040498442,"Stroop_1","internal_consistency"
"212",0.8,100,3000,3,"subject","median",0.76966,0.68786,0.83819,107,46324,432.934579439252,1,0.901947040498442,"Stroop_1","internal_consistency"
"213",0.9,100,3000,3,"subject","median",0.7689,0.67248,0.83428,107,46324,432.934579439252,1,0.901947040498442,"Stroop_1","internal_consistency"
"214",0,200,3000,3,"subject","median",0.76779,0.67161,0.84097,107,46290,432.616822429907,1,0.901285046728972,"Stroop_1","internal_consistency"
"215",0.8,200,3000,3,"subject","median",0.76529,0.67959,0.83794,107,46290,432.616822429907,1,0.901285046728972,"Stroop_1","internal_consistency"
"216",0.9,200,3000,3,"subject","median",0.76489,0.67368,0.8373,107,46290,432.616822429907,1,0.901285046728972,"Stroop_1","internal_consistency"
"217",0,0,2000,0,"trial","median",0.74978,0.65415,0.82094,107,46974,439.009345794393,1,0.914602803738318,"Stroop_1","internal_consistency"
"218",0.8,0,2000,0,"trial","median",0.75758,0.67388,0.82502,107,46974,439.009345794393,1,0.914602803738318,"Stroop_1","internal_consistency"
"219",0.9,0,2000,0,"trial","median",0.75444,0.67585,0.82332,107,46974,439.009345794393,1,0.914602803738318,"Stroop_1","internal_consistency"
"220",0,100,2000,0,"trial","median",0.76361,0.66753,0.83196,107,46925,438.551401869159,1,0.913648753894081,"Stroop_1","internal_consistency"
"221",0.8,100,2000,0,"trial","median",0.76305,0.66178,0.83924,107,46925,438.551401869159,1,0.913648753894081,"Stroop_1","internal_consistency"
"222",0.9,100,2000,0,"trial","median",0.76585,0.67599,0.83664,107,46925,438.551401869159,1,0.913648753894081,"Stroop_1","internal_consistency"
"223",0,200,2000,0,"trial","median",0.75687,0.64454,0.83415,107,46891,438.233644859813,1,0.912986760124611,"Stroop_1","internal_consistency"
"224",0.8,200,2000,0,"trial","median",0.75853,0.65754,0.83137,107,46891,438.233644859813,1,0.912986760124611,"Stroop_1","internal_consistency"
"225",0.9,200,2000,0,"trial","median",0.75567,0.65749,0.82371,107,46891,438.233644859813,1,0.912986760124611,"Stroop_1","internal_consistency"
"226",0,0,3000,0,"trial","median",0.76243,0.68544,0.82935,107,47120,440.373831775701,1,0.917445482866044,"Stroop_1","internal_consistency"
"227",0.8,0,3000,0,"trial","median",0.76429,0.68024,0.82767,107,47120,440.373831775701,1,0.917445482866044,"Stroop_1","internal_consistency"
"228",0.9,0,3000,0,"trial","median",0.76218,0.68124,0.83012,107,47120,440.373831775701,1,0.917445482866044,"Stroop_1","internal_consistency"
"229",0,100,3000,0,"trial","median",0.77147,0.68118,0.83401,107,47071,439.915887850467,1,0.916491433021807,"Stroop_1","internal_consistency"
"230",0.8,100,3000,0,"trial","median",0.76997,0.6815,0.83833,107,47071,439.915887850467,1,0.916491433021807,"Stroop_1","internal_consistency"
"231",0.9,100,3000,0,"trial","median",0.76954,0.67502,0.84409,107,47071,439.915887850467,1,0.916491433021807,"Stroop_1","internal_consistency"
"232",0,200,3000,0,"trial","median",0.76782,0.66371,0.83959,107,47037,439.598130841121,1,0.915829439252336,"Stroop_1","internal_consistency"
"233",0.8,200,3000,0,"trial","median",0.76588,0.66815,0.83697,107,47037,439.598130841121,1,0.915829439252336,"Stroop_1","internal_consistency"
"234",0.9,200,3000,0,"trial","median",0.76925,0.66661,0.83201,107,47037,439.598130841121,1,0.915829439252336,"Stroop_1","internal_consistency"
"235",0,0,2000,1,"trial","median",0.85045,0.8057,0.89237,107,35055,327.616822429907,1,0.682535046728972,"Stroop_1","internal_consistency"
"236",0.8,0,2000,1,"trial","median",0.84902,0.79959,0.89467,107,35055,327.616822429907,1,0.682535046728972,"Stroop_1","internal_consistency"
"237",0.9,0,2000,1,"trial","median",0.85036,0.79932,0.89321,107,35055,327.616822429907,1,0.682535046728972,"Stroop_1","internal_consistency"
"238",0,100,2000,1,"trial","median",0.87082,0.81855,0.90923,107,34998,327.084112149533,1,0.68142523364486,"Stroop_1","internal_consistency"
"239",0.8,100,2000,1,"trial","median",0.87012,0.82019,0.90837,107,34998,327.084112149533,1,0.68142523364486,"Stroop_1","internal_consistency"
"240",0.9,100,2000,1,"trial","median",0.87135,0.82121,0.90975,107,34998,327.084112149533,1,0.68142523364486,"Stroop_1","internal_consistency"
"241",0,200,2000,1,"trial","median",0.86457,0.814,0.90092,107,34973,326.85046728972,1,0.680938473520249,"Stroop_1","internal_consistency"
"242",0.8,200,2000,1,"trial","median",0.86381,0.81543,0.90089,107,34973,326.85046728972,1,0.680938473520249,"Stroop_1","internal_consistency"
"243",0.9,200,2000,1,"trial","median",0.86177,0.81153,0.90316,107,34973,326.85046728972,1,0.680938473520249,"Stroop_1","internal_consistency"
"244",0,0,3000,1,"trial","median",0.85491,0.814,0.89758,107,35917,335.672897196262,1,0.699318535825545,"Stroop_1","internal_consistency"
"245",0.8,0,3000,1,"trial","median",0.85487,0.80842,0.89612,107,35917,335.672897196262,1,0.699318535825545,"Stroop_1","internal_consistency"
"246",0.9,0,3000,1,"trial","median",0.85374,0.80436,0.89223,107,35917,335.672897196262,1,0.699318535825545,"Stroop_1","internal_consistency"
"247",0,100,3000,1,"trial","median",0.8725,0.82579,0.91001,107,35857,335.11214953271,1,0.69815031152648,"Stroop_1","internal_consistency"
"248",0.8,100,3000,1,"trial","median",0.87058,0.81805,0.90975,107,35857,335.11214953271,1,0.69815031152648,"Stroop_1","internal_consistency"
"249",0.9,100,3000,1,"trial","median",0.8733,0.82148,0.91018,107,35857,335.11214953271,1,0.69815031152648,"Stroop_1","internal_consistency"
"250",0,200,3000,1,"trial","median",0.86611,0.8109,0.90454,107,35831,334.869158878505,1,0.697644080996885,"Stroop_1","internal_consistency"
"251",0.8,200,3000,1,"trial","median",0.8685,0.82208,0.9055,107,35831,334.869158878505,1,0.697644080996885,"Stroop_1","internal_consistency"
"252",0.9,200,3000,1,"trial","median",0.86726,0.8192,0.90492,107,35831,334.869158878505,1,0.697644080996885,"Stroop_1","internal_consistency"
"253",0,0,2000,2,"trial","median",0.77243,0.69677,0.83597,107,44867,419.317757009346,1,0.873578660436137,"Stroop_1","internal_consistency"
"254",0.8,0,2000,2,"trial","median",0.76969,0.69237,0.83299,107,44867,419.317757009346,1,0.873578660436137,"Stroop_1","internal_consistency"
"255",0.9,0,2000,2,"trial","median",0.77096,0.695,0.83851,107,44867,419.317757009346,1,0.873578660436137,"Stroop_1","internal_consistency"
"256",0,100,2000,2,"trial","median",0.78199,0.6933,0.84534,107,44824,418.915887850467,1,0.872741433021807,"Stroop_1","internal_consistency"
"257",0.8,100,2000,2,"trial","median",0.78207,0.69355,0.84718,107,44824,418.915887850467,1,0.872741433021807,"Stroop_1","internal_consistency"
"258",0.9,100,2000,2,"trial","median",0.77786,0.68791,0.84323,107,44824,418.915887850467,1,0.872741433021807,"Stroop_1","internal_consistency"
"259",0,200,2000,2,"trial","median",0.7733,0.66273,0.84231,107,44792,418.616822429907,1,0.872118380062305,"Stroop_1","internal_consistency"
"260",0.8,200,2000,2,"trial","median",0.7711,0.67866,0.84049,107,44792,418.616822429907,1,0.872118380062305,"Stroop_1","internal_consistency"
"261",0.9,200,2000,2,"trial","median",0.7718,0.65457,0.84427,107,44792,418.616822429907,1,0.872118380062305,"Stroop_1","internal_consistency"
"262",0,0,3000,2,"trial","median",0.77379,0.69752,0.84142,107,45078,421.289719626168,1,0.87768691588785,"Stroop_1","internal_consistency"
"263",0.8,0,3000,2,"trial","median",0.77453,0.70717,0.83335,107,45078,421.289719626168,1,0.87768691588785,"Stroop_1","internal_consistency"
"264",0.9,0,3000,2,"trial","median",0.7708,0.69464,0.83877,107,45078,421.289719626168,1,0.87768691588785,"Stroop_1","internal_consistency"
"265",0,100,3000,2,"trial","median",0.78102,0.68729,0.84354,107,45034,420.878504672897,1,0.876830218068536,"Stroop_1","internal_consistency"
"266",0.8,100,3000,2,"trial","median",0.77778,0.68526,0.84522,107,45034,420.878504672897,1,0.876830218068536,"Stroop_1","internal_consistency"
"267",0.9,100,3000,2,"trial","median",0.77838,0.69082,0.84855,107,45034,420.878504672897,1,0.876830218068536,"Stroop_1","internal_consistency"
"268",0,200,3000,2,"trial","median",0.77637,0.67028,0.84679,107,45003,420.588785046729,1,0.876226635514019,"Stroop_1","internal_consistency"
"269",0.8,200,3000,2,"trial","median",0.77367,0.66719,0.84029,107,45003,420.588785046729,1,0.876226635514019,"Stroop_1","internal_consistency"
"270",0.9,200,3000,2,"trial","median",0.77222,0.65517,0.84951,107,45003,420.588785046729,1,0.876226635514019,"Stroop_1","internal_consistency"
"271",0,0,2000,3,"trial","median",0.76218,0.69021,0.82631,107,46259,432.327102803738,1,0.900681464174455,"Stroop_1","internal_consistency"
"272",0.8,0,2000,3,"trial","median",0.76712,0.67943,0.8374,107,46259,432.327102803738,1,0.900681464174455,"Stroop_1","internal_consistency"
"273",0.9,0,2000,3,"trial","median",0.76335,0.68501,0.83062,107,46259,432.327102803738,1,0.900681464174455,"Stroop_1","internal_consistency"
"274",0,100,2000,3,"trial","median",0.77313,0.68049,0.84177,107,46213,431.897196261682,1,0.899785825545171,"Stroop_1","internal_consistency"
"275",0.8,100,2000,3,"trial","median",0.77076,0.68039,0.83761,107,46213,431.897196261682,1,0.899785825545171,"Stroop_1","internal_consistency"
"276",0.9,100,2000,3,"trial","median",0.77364,0.68101,0.84642,107,46213,431.897196261682,1,0.899785825545171,"Stroop_1","internal_consistency"
"277",0,200,2000,3,"trial","median",0.76956,0.67667,0.84058,107,46179,431.579439252336,1,0.899123831775701,"Stroop_1","internal_consistency"
"278",0.8,200,2000,3,"trial","median",0.76914,0.66613,0.84075,107,46179,431.579439252336,1,0.899123831775701,"Stroop_1","internal_consistency"
"279",0.9,200,2000,3,"trial","median",0.77002,0.67141,0.84376,107,46179,431.579439252336,1,0.899123831775701,"Stroop_1","internal_consistency"
"280",0,0,3000,3,"trial","median",0.76451,0.6923,0.82722,107,46379,433.448598130841,1,0.903017912772586,"Stroop_1","internal_consistency"
"281",0.8,0,3000,3,"trial","median",0.76651,0.68915,0.83235,107,46379,433.448598130841,1,0.903017912772586,"Stroop_1","internal_consistency"
"282",0.9,0,3000,3,"trial","median",0.77094,0.69807,0.83216,107,46379,433.448598130841,1,0.903017912772586,"Stroop_1","internal_consistency"
"283",0,100,3000,3,"trial","median",0.77625,0.69124,0.84044,107,46332,433.009345794393,1,0.902102803738318,"Stroop_1","internal_consistency"
"284",0.8,100,3000,3,"trial","median",0.78038,0.68912,0.84447,107,46332,433.009345794393,1,0.902102803738318,"Stroop_1","internal_consistency"
"285",0.9,100,3000,3,"trial","median",0.7769,0.67598,0.84551,107,46332,433.009345794393,1,0.902102803738318,"Stroop_1","internal_consistency"
"286",0,200,3000,3,"trial","median",0.77288,0.66908,0.84163,107,46297,432.682242990654,1,0.901421339563863,"Stroop_1","internal_consistency"
"287",0.8,200,3000,3,"trial","median",0.77687,0.68429,0.84624,107,46297,432.682242990654,1,0.901421339563863,"Stroop_1","internal_consistency"
"288",0.9,200,3000,3,"trial","median",0.7775,0.68635,0.84966,107,46297,432.682242990654,1,0.901421339563863,"Stroop_1","internal_consistency"
"289",0,0,2000,0,"subject","mean",0.65735,0.54121,0.75399,107,45829,428.308411214953,1,0.892309190031153,"Stroop_2","internal_consistency"
"290",0.8,0,2000,0,"subject","mean",0.65626,0.51457,0.75522,107,45829,428.308411214953,1,0.892309190031153,"Stroop_2","internal_consistency"
"291",0.9,0,2000,0,"subject","mean",0.6651,0.54143,0.7517,107,45829,428.308411214953,1,0.892309190031153,"Stroop_2","internal_consistency"
"292",0,100,2000,0,"subject","mean",0.64744,0.51521,0.75495,107,45701,427.11214953271,1,0.889816978193146,"Stroop_2","internal_consistency"
"293",0.8,100,2000,0,"subject","mean",0.64373,0.50452,0.74683,107,45701,427.11214953271,1,0.889816978193146,"Stroop_2","internal_consistency"
"294",0.9,100,2000,0,"subject","mean",0.64895,0.50731,0.75423,107,45701,427.11214953271,1,0.889816978193146,"Stroop_2","internal_consistency"
"295",0,200,2000,0,"subject","mean",0.62536,0.44918,0.73855,107,45612,426.280373831776,1,0.888084112149533,"Stroop_2","internal_consistency"
"296",0.8,200,2000,0,"subject","mean",0.62187,0.46301,0.74261,107,45612,426.280373831776,1,0.888084112149533,"Stroop_2","internal_consistency"
"297",0.9,200,2000,0,"subject","mean",0.62847,0.47012,0.74063,107,45612,426.280373831776,1,0.888084112149533,"Stroop_2","internal_consistency"
"298",0,0,3000,0,"subject","mean",0.6668,0.51644,0.76933,107,45915,429.11214953271,1,0.893983644859813,"Stroop_2","internal_consistency"
"299",0.8,0,3000,0,"subject","mean",0.66956,0.50608,0.77645,107,45915,429.11214953271,1,0.893983644859813,"Stroop_2","internal_consistency"
"300",0.9,0,3000,0,"subject","mean",0.66826,0.51386,0.77279,107,45915,429.11214953271,1,0.893983644859813,"Stroop_2","internal_consistency"
"301",0,100,3000,0,"subject","mean",0.65169,0.50317,0.76333,107,45787,427.915887850467,1,0.891491433021807,"Stroop_2","internal_consistency"
"302",0.8,100,3000,0,"subject","mean",0.66325,0.51502,0.76524,107,45787,427.915887850467,1,0.891491433021807,"Stroop_2","internal_consistency"
"303",0.9,100,3000,0,"subject","mean",0.6521,0.49872,0.75439,107,45787,427.915887850467,1,0.891491433021807,"Stroop_2","internal_consistency"
"304",0,200,3000,0,"subject","mean",0.63112,0.44185,0.74758,107,45698,427.084112149533,1,0.889758566978193,"Stroop_2","internal_consistency"
"305",0.8,200,3000,0,"subject","mean",0.63874,0.46878,0.76017,107,45698,427.084112149533,1,0.889758566978193,"Stroop_2","internal_consistency"
"306",0.9,200,3000,0,"subject","mean",0.63361,0.44298,0.76251,107,45698,427.084112149533,1,0.889758566978193,"Stroop_2","internal_consistency"
"307",0,0,2000,1,"subject","mean",0.64611,0.5158,0.75138,107,34289,320.457943925234,1,0.667620716510903,"Stroop_2","internal_consistency"
"308",0.8,0,2000,1,"subject","mean",0.65149,0.5237,0.75153,107,34289,320.457943925234,1,0.667620716510903,"Stroop_2","internal_consistency"
"309",0.9,0,2000,1,"subject","mean",0.64462,0.51439,0.75112,107,34289,320.457943925234,1,0.667620716510903,"Stroop_2","internal_consistency"
"310",0,100,2000,1,"subject","mean",0.64443,0.48781,0.75051,107,34207,319.691588785047,1,0.666024143302181,"Stroop_2","internal_consistency"
"311",0.8,100,2000,1,"subject","mean",0.64563,0.51911,0.756,107,34207,319.691588785047,1,0.666024143302181,"Stroop_2","internal_consistency"
"312",0.9,100,2000,1,"subject","mean",0.64169,0.50227,0.75091,107,34207,319.691588785047,1,0.666024143302181,"Stroop_2","internal_consistency"
"313",0,200,2000,1,"subject","mean",0.64245,0.51011,0.75175,107,34108,318.766355140187,1,0.664096573208723,"Stroop_2","internal_consistency"
"314",0.8,200,2000,1,"subject","mean",0.64707,0.50715,0.75433,107,34108,318.766355140187,1,0.664096573208723,"Stroop_2","internal_consistency"
"315",0.9,200,2000,1,"subject","mean",0.64603,0.50733,0.75621,107,34108,318.766355140187,1,0.664096573208723,"Stroop_2","internal_consistency"
"316",0,0,3000,1,"subject","mean",0.65393,0.51374,0.76203,107,34920,326.355140186916,1,0.679906542056075,"Stroop_2","internal_consistency"
"317",0.8,0,3000,1,"subject","mean",0.65462,0.51758,0.7579,107,34920,326.355140186916,1,0.679906542056075,"Stroop_2","internal_consistency"
"318",0.9,0,3000,1,"subject","mean",0.65548,0.52087,0.76382,107,34920,326.355140186916,1,0.679906542056075,"Stroop_2","internal_consistency"
"319",0,100,3000,1,"subject","mean",0.64111,0.49981,0.74557,107,34878,325.96261682243,1,0.679088785046729,"Stroop_2","internal_consistency"
"320",0.8,100,3000,1,"subject","mean",0.6427,0.50267,0.74476,107,34878,325.96261682243,1,0.679088785046729,"Stroop_2","internal_consistency"
"321",0.9,100,3000,1,"subject","mean",0.6405,0.50039,0.73734,107,34878,325.96261682243,1,0.679088785046729,"Stroop_2","internal_consistency"
"322",0,200,3000,1,"subject","mean",0.6429,0.48407,0.75573,107,34801,325.242990654206,1,0.677589563862928,"Stroop_2","internal_consistency"
"323",0.8,200,3000,1,"subject","mean",0.63444,0.48008,0.7542,107,34801,325.242990654206,1,0.677589563862928,"Stroop_2","internal_consistency"
"324",0.9,200,3000,1,"subject","mean",0.63948,0.48669,0.75733,107,34801,325.242990654206,1,0.677589563862928,"Stroop_2","internal_consistency"
"325",0,0,2000,2,"subject","mean",0.68903,0.57592,0.78401,107,43788,409.233644859813,1,0.852570093457944,"Stroop_2","internal_consistency"
"326",0.8,0,2000,2,"subject","mean",0.68931,0.58043,0.78379,107,43788,409.233644859813,1,0.852570093457944,"Stroop_2","internal_consistency"
"327",0.9,0,2000,2,"subject","mean",0.68522,0.55979,0.78032,107,43788,409.233644859813,1,0.852570093457944,"Stroop_2","internal_consistency"
"328",0,100,2000,2,"subject","mean",0.65165,0.51668,0.75543,107,43667,408.102803738318,1,0.850214174454829,"Stroop_2","internal_consistency"
"329",0.8,100,2000,2,"subject","mean",0.65692,0.52575,0.752,107,43667,408.102803738318,1,0.850214174454829,"Stroop_2","internal_consistency"
"330",0.9,100,2000,2,"subject","mean",0.65513,0.52332,0.7678,107,43667,408.102803738318,1,0.850214174454829,"Stroop_2","internal_consistency"
"331",0,200,2000,2,"subject","mean",0.64452,0.50969,0.75529,107,43595,407.429906542056,1,0.84881230529595,"Stroop_2","internal_consistency"
"332",0.8,200,2000,2,"subject","mean",0.64686,0.51392,0.74215,107,43595,407.429906542056,1,0.84881230529595,"Stroop_2","internal_consistency"
"333",0.9,200,2000,2,"subject","mean",0.64847,0.52133,0.7491,107,43595,407.429906542056,1,0.84881230529595,"Stroop_2","internal_consistency"
"334",0,0,3000,2,"subject","mean",0.68223,0.55389,0.77677,107,43954,410.785046728972,1,0.855802180685358,"Stroop_2","internal_consistency"
"335",0.8,0,3000,2,"subject","mean",0.67851,0.55346,0.77199,107,43954,410.785046728972,1,0.855802180685358,"Stroop_2","internal_consistency"
"336",0.9,0,3000,2,"subject","mean",0.67406,0.52137,0.77664,107,43954,410.785046728972,1,0.855802180685358,"Stroop_2","internal_consistency"
"337",0,100,3000,2,"subject","mean",0.65181,0.5054,0.76113,107,43830,409.626168224299,1,0.85338785046729,"Stroop_2","internal_consistency"
"338",0.8,100,3000,2,"subject","mean",0.64952,0.51462,0.75855,107,43830,409.626168224299,1,0.85338785046729,"Stroop_2","internal_consistency"
"339",0.9,100,3000,2,"subject","mean",0.65218,0.50463,0.75814,107,43830,409.626168224299,1,0.85338785046729,"Stroop_2","internal_consistency"
"340",0,200,3000,2,"subject","mean",0.63742,0.49661,0.74174,107,43753,408.906542056075,1,0.851888629283489,"Stroop_2","internal_consistency"
"341",0.8,200,3000,2,"subject","mean",0.64035,0.48401,0.7509,107,43753,408.906542056075,1,0.851888629283489,"Stroop_2","internal_consistency"
"342",0.9,200,3000,2,"subject","mean",0.64481,0.48417,0.75446,107,43753,408.906542056075,1,0.851888629283489,"Stroop_2","internal_consistency"
"343",0,0,2000,3,"subject","mean",0.68384,0.57427,0.77425,107,45149,421.953271028037,1,0.879069314641745,"Stroop_2","internal_consistency"
"344",0.8,0,2000,3,"subject","mean",0.68351,0.54164,0.77584,107,45149,421.953271028037,1,0.879069314641745,"Stroop_2","internal_consistency"
"345",0.9,0,2000,3,"subject","mean",0.68743,0.57082,0.7769,107,45149,421.953271028037,1,0.879069314641745,"Stroop_2","internal_consistency"
"346",0,100,2000,3,"subject","mean",0.67143,0.53445,0.76034,107,45016,420.710280373832,1,0.876479750778816,"Stroop_2","internal_consistency"
"347",0.8,100,2000,3,"subject","mean",0.67495,0.55082,0.77156,107,45016,420.710280373832,1,0.876479750778816,"Stroop_2","internal_consistency"
"348",0.9,100,2000,3,"subject","mean",0.67108,0.55126,0.76771,107,45016,420.710280373832,1,0.876479750778816,"Stroop_2","internal_consistency"
"349",0,200,2000,3,"subject","mean",0.66243,0.52833,0.7609,107,44925,419.859813084112,1,0.874707943925234,"Stroop_2","internal_consistency"
"350",0.8,200,2000,3,"subject","mean",0.6642,0.53369,0.7581,107,44925,419.859813084112,1,0.874707943925234,"Stroop_2","internal_consistency"
"351",0.9,200,2000,3,"subject","mean",0.6671,0.54506,0.76662,107,44925,419.859813084112,1,0.874707943925234,"Stroop_2","internal_consistency"
"352",0,0,3000,3,"subject","mean",0.6873,0.54758,0.78094,107,45220,422.616822429907,1,0.880451713395639,"Stroop_2","internal_consistency"
"353",0.8,0,3000,3,"subject","mean",0.68575,0.53913,0.78511,107,45220,422.616822429907,1,0.880451713395639,"Stroop_2","internal_consistency"
"354",0.9,0,3000,3,"subject","mean",0.68494,0.56615,0.77408,107,45220,422.616822429907,1,0.880451713395639,"Stroop_2","internal_consistency"
"355",0,100,3000,3,"subject","mean",0.66731,0.52796,0.77581,107,45092,421.420560747664,1,0.877959501557632,"Stroop_2","internal_consistency"
"356",0.8,100,3000,3,"subject","mean",0.68081,0.53287,0.78486,107,45092,421.420560747664,1,0.877959501557632,"Stroop_2","internal_consistency"
"357",0.9,100,3000,3,"subject","mean",0.67605,0.54695,0.77122,107,45092,421.420560747664,1,0.877959501557632,"Stroop_2","internal_consistency"
"358",0,200,3000,3,"subject","mean",0.65804,0.49853,0.76757,107,45003,420.588785046729,1,0.876226635514019,"Stroop_2","internal_consistency"
"359",0.8,200,3000,3,"subject","mean",0.6554,0.47308,0.76867,107,45003,420.588785046729,1,0.876226635514019,"Stroop_2","internal_consistency"
"360",0.9,200,3000,3,"subject","mean",0.65783,0.51191,0.76832,107,45003,420.588785046729,1,0.876226635514019,"Stroop_2","internal_consistency"
"361",0,0,2000,0,"trial","mean",0.6606,0.5356,0.75347,107,45829,428.308411214953,1,0.892309190031153,"Stroop_2","internal_consistency"
"362",0.8,0,2000,0,"trial","mean",0.6612,0.52955,0.76011,107,45829,428.308411214953,1,0.892309190031153,"Stroop_2","internal_consistency"
"363",0.9,0,2000,0,"trial","mean",0.65873,0.52866,0.76484,107,45829,428.308411214953,1,0.892309190031153,"Stroop_2","internal_consistency"
"364",0,100,2000,0,"trial","mean",0.64908,0.51865,0.7506,107,45701,427.11214953271,1,0.889816978193146,"Stroop_2","internal_consistency"
"365",0.8,100,2000,0,"trial","mean",0.64302,0.50468,0.74462,107,45701,427.11214953271,1,0.889816978193146,"Stroop_2","internal_consistency"
"366",0.9,100,2000,0,"trial","mean",0.64314,0.52687,0.74199,107,45701,427.11214953271,1,0.889816978193146,"Stroop_2","internal_consistency"
"367",0,200,2000,0,"trial","mean",0.61955,0.44775,0.74142,107,45612,426.280373831776,1,0.888084112149533,"Stroop_2","internal_consistency"
"368",0.8,200,2000,0,"trial","mean",0.62291,0.43913,0.73675,107,45612,426.280373831776,1,0.888084112149533,"Stroop_2","internal_consistency"
"369",0.9,200,2000,0,"trial","mean",0.62801,0.45258,0.74195,107,45612,426.280373831776,1,0.888084112149533,"Stroop_2","internal_consistency"
"370",0,0,3000,0,"trial","mean",0.67374,0.53942,0.77077,107,45915,429.11214953271,1,0.893983644859813,"Stroop_2","internal_consistency"
"371",0.8,0,3000,0,"trial","mean",0.6693,0.53188,0.77146,107,45915,429.11214953271,1,0.893983644859813,"Stroop_2","internal_consistency"
"372",0.9,0,3000,0,"trial","mean",0.66688,0.51816,0.7732,107,45915,429.11214953271,1,0.893983644859813,"Stroop_2","internal_consistency"
"373",0,100,3000,0,"trial","mean",0.66421,0.51682,0.76261,107,45787,427.915887850467,1,0.891491433021807,"Stroop_2","internal_consistency"
"374",0.8,100,3000,0,"trial","mean",0.65748,0.49521,0.76501,107,45787,427.915887850467,1,0.891491433021807,"Stroop_2","internal_consistency"
"375",0.9,100,3000,0,"trial","mean",0.65223,0.49841,0.76558,107,45787,427.915887850467,1,0.891491433021807,"Stroop_2","internal_consistency"
"376",0,200,3000,0,"trial","mean",0.6375,0.46935,0.76024,107,45698,427.084112149533,1,0.889758566978193,"Stroop_2","internal_consistency"
"377",0.8,200,3000,0,"trial","mean",0.63611,0.47389,0.75768,107,45698,427.084112149533,1,0.889758566978193,"Stroop_2","internal_consistency"
"378",0.9,200,3000,0,"trial","mean",0.63466,0.45897,0.74677,107,45698,427.084112149533,1,0.889758566978193,"Stroop_2","internal_consistency"
"379",0,0,2000,1,"trial","mean",0.90007,0.86107,0.93058,107,34164,319.289719626168,1,0.665186915887851,"Stroop_2","internal_consistency"
"380",0.8,0,2000,1,"trial","mean",0.90188,0.86703,0.93006,107,34164,319.289719626168,1,0.665186915887851,"Stroop_2","internal_consistency"
"381",0.9,0,2000,1,"trial","mean",0.9,0.85831,0.9294,107,34164,319.289719626168,1,0.665186915887851,"Stroop_2","internal_consistency"
"382",0,100,2000,1,"trial","mean",0.89541,0.85334,0.92749,107,34072,318.429906542056,1,0.663395638629284,"Stroop_2","internal_consistency"
"383",0.8,100,2000,1,"trial","mean",0.89526,0.85378,0.92727,107,34072,318.429906542056,1,0.663395638629284,"Stroop_2","internal_consistency"
"384",0.9,100,2000,1,"trial","mean",0.89526,0.85617,0.92645,107,34072,318.429906542056,1,0.663395638629284,"Stroop_2","internal_consistency"
"385",0,200,2000,1,"trial","mean",0.89254,0.85185,0.92314,107,33967,317.448598130841,1,0.661351246105919,"Stroop_2","internal_consistency"
"386",0.8,200,2000,1,"trial","mean",0.89256,0.8527,0.92344,107,33967,317.448598130841,1,0.661351246105919,"Stroop_2","internal_consistency"
"387",0.9,200,2000,1,"trial","mean",0.89295,0.85501,0.92376,107,33967,317.448598130841,1,0.661351246105919,"Stroop_2","internal_consistency"
"388",0,0,3000,1,"trial","mean",0.8923,0.85162,0.92336,107,34757,324.831775700935,1,0.676732866043614,"Stroop_2","internal_consistency"
"389",0.8,0,3000,1,"trial","mean",0.89169,0.85126,0.92396,107,34757,324.831775700935,1,0.676732866043614,"Stroop_2","internal_consistency"
"390",0.9,0,3000,1,"trial","mean",0.89132,0.84102,0.92444,107,34757,324.831775700935,1,0.676732866043614,"Stroop_2","internal_consistency"
"391",0,100,3000,1,"trial","mean",0.88874,0.84713,0.92259,107,34674,324.056074766355,1,0.675116822429907,"Stroop_2","internal_consistency"
"392",0.8,100,3000,1,"trial","mean",0.88746,0.84213,0.92072,107,34674,324.056074766355,1,0.675116822429907,"Stroop_2","internal_consistency"
"393",0.9,100,3000,1,"trial","mean",0.88896,0.83673,0.92386,107,34674,324.056074766355,1,0.675116822429907,"Stroop_2","internal_consistency"
"394",0,200,3000,1,"trial","mean",0.88861,0.8444,0.92003,107,34590,323.271028037383,1,0.673481308411215,"Stroop_2","internal_consistency"
"395",0.8,200,3000,1,"trial","mean",0.88464,0.838,0.92078,107,34590,323.271028037383,1,0.673481308411215,"Stroop_2","internal_consistency"
"396",0.9,200,3000,1,"trial","mean",0.88759,0.84321,0.92339,107,34590,323.271028037383,1,0.673481308411215,"Stroop_2","internal_consistency"
"397",0,0,2000,2,"trial","mean",0.79339,0.71807,0.85404,107,43846,409.775700934579,1,0.85369937694704,"Stroop_2","internal_consistency"
"398",0.8,0,2000,2,"trial","mean",0.79469,0.71032,0.85293,107,43846,409.775700934579,1,0.85369937694704,"Stroop_2","internal_consistency"
"399",0.9,0,2000,2,"trial","mean",0.79431,0.71382,0.85715,107,43846,409.775700934579,1,0.85369937694704,"Stroop_2","internal_consistency"
"400",0,100,2000,2,"trial","mean",0.77362,0.68024,0.83672,107,43723,408.626168224299,1,0.851304517133956,"Stroop_2","internal_consistency"
"401",0.8,100,2000,2,"trial","mean",0.77166,0.67772,0.83973,107,43723,408.626168224299,1,0.851304517133956,"Stroop_2","internal_consistency"
"402",0.9,100,2000,2,"trial","mean",0.77318,0.69237,0.84123,107,43723,408.626168224299,1,0.851304517133956,"Stroop_2","internal_consistency"
"403",0,200,2000,2,"trial","mean",0.76961,0.67986,0.83729,107,43648,407.92523364486,1,0.849844236760125,"Stroop_2","internal_consistency"
"404",0.8,200,2000,2,"trial","mean",0.77175,0.68503,0.83803,107,43648,407.92523364486,1,0.849844236760125,"Stroop_2","internal_consistency"
"405",0.9,200,2000,2,"trial","mean",0.76924,0.67471,0.83938,107,43648,407.92523364486,1,0.849844236760125,"Stroop_2","internal_consistency"
"406",0,0,3000,2,"trial","mean",0.79043,0.70215,0.85232,107,43969,410.92523364486,1,0.856094236760125,"Stroop_2","internal_consistency"
"407",0.8,0,3000,2,"trial","mean",0.78786,0.69881,0.85882,107,43969,410.92523364486,1,0.856094236760125,"Stroop_2","internal_consistency"
"408",0.9,0,3000,2,"trial","mean",0.78635,0.69915,0.85084,107,43969,410.92523364486,1,0.856094236760125,"Stroop_2","internal_consistency"
"409",0,100,3000,2,"trial","mean",0.77289,0.69182,0.84009,107,43854,409.85046728972,1,0.853855140186916,"Stroop_2","internal_consistency"
"410",0.8,100,3000,2,"trial","mean",0.77322,0.67448,0.8377,107,43854,409.85046728972,1,0.853855140186916,"Stroop_2","internal_consistency"
"411",0.9,100,3000,2,"trial","mean",0.77378,0.68609,0.84939,107,43854,409.85046728972,1,0.853855140186916,"Stroop_2","internal_consistency"
"412",0,200,3000,2,"trial","mean",0.76687,0.66457,0.84336,107,43773,409.093457943925,1,0.852278037383178,"Stroop_2","internal_consistency"
"413",0.8,200,3000,2,"trial","mean",0.76805,0.66224,0.84046,107,43773,409.093457943925,1,0.852278037383178,"Stroop_2","internal_consistency"
"414",0.9,200,3000,2,"trial","mean",0.76576,0.67075,0.83835,107,43773,409.093457943925,1,0.852278037383178,"Stroop_2","internal_consistency"
"415",0,0,2000,3,"trial","mean",0.75295,0.66641,0.82882,107,45120,421.682242990654,1,0.878504672897196,"Stroop_2","internal_consistency"
"416",0.8,0,2000,3,"trial","mean",0.75241,0.65461,0.82569,107,45120,421.682242990654,1,0.878504672897196,"Stroop_2","internal_consistency"
"417",0.9,0,2000,3,"trial","mean",0.75115,0.66417,0.8213,107,45120,421.682242990654,1,0.878504672897196,"Stroop_2","internal_consistency"
"418",0,100,2000,3,"trial","mean",0.75052,0.65521,0.82252,107,44990,420.467289719626,1,0.875973520249221,"Stroop_2","internal_consistency"
"419",0.8,100,2000,3,"trial","mean",0.74907,0.66484,0.81701,107,44990,420.467289719626,1,0.875973520249221,"Stroop_2","internal_consistency"
"420",0.9,100,2000,3,"trial","mean",0.74751,0.65512,0.82288,107,44990,420.467289719626,1,0.875973520249221,"Stroop_2","internal_consistency"
"421",0,200,2000,3,"trial","mean",0.73213,0.61116,0.81712,107,44900,419.626168224299,1,0.874221183800623,"Stroop_2","internal_consistency"
"422",0.8,200,2000,3,"trial","mean",0.7308,0.6244,0.80954,107,44900,419.626168224299,1,0.874221183800623,"Stroop_2","internal_consistency"
"423",0.9,200,2000,3,"trial","mean",0.73387,0.61561,0.81867,107,44900,419.626168224299,1,0.874221183800623,"Stroop_2","internal_consistency"
"424",0,0,3000,3,"trial","mean",0.76321,0.67155,0.83663,107,45189,422.327102803738,1,0.879848130841121,"Stroop_2","internal_consistency"
"425",0.8,0,3000,3,"trial","mean",0.76457,0.66066,0.83959,107,45189,422.327102803738,1,0.879848130841121,"Stroop_2","internal_consistency"
"426",0.9,0,3000,3,"trial","mean",0.76683,0.66632,0.84279,107,45189,422.327102803738,1,0.879848130841121,"Stroop_2","internal_consistency"
"427",0,100,3000,3,"trial","mean",0.75858,0.65177,0.83363,107,45060,421.121495327103,1,0.877336448598131,"Stroop_2","internal_consistency"
"428",0.8,100,3000,3,"trial","mean",0.75782,0.65938,0.83132,107,45060,421.121495327103,1,0.877336448598131,"Stroop_2","internal_consistency"
"429",0.9,100,3000,3,"trial","mean",0.76058,0.65237,0.83426,107,45060,421.121495327103,1,0.877336448598131,"Stroop_2","internal_consistency"
"430",0,200,3000,3,"trial","mean",0.73685,0.60221,0.82355,107,44973,420.308411214953,1,0.875642523364486,"Stroop_2","internal_consistency"
"431",0.8,200,3000,3,"trial","mean",0.73416,0.62196,0.81393,107,44973,420.308411214953,1,0.875642523364486,"Stroop_2","internal_consistency"
"432",0.9,200,3000,3,"trial","mean",0.7352,0.60196,0.82102,107,44973,420.308411214953,1,0.875642523364486,"Stroop_2","internal_consistency"
"433",0,0,2000,0,"subject","median",0.66493,0.51856,0.77376,107,45829,428.308411214953,1,0.892309190031153,"Stroop_2","internal_consistency"
"434",0.8,0,2000,0,"subject","median",0.65907,0.5172,0.77339,107,45829,428.308411214953,1,0.892309190031153,"Stroop_2","internal_consistency"
"435",0.9,0,2000,0,"subject","median",0.6629,0.51357,0.77428,107,45829,428.308411214953,1,0.892309190031153,"Stroop_2","internal_consistency"
"436",0,100,2000,0,"subject","median",0.63772,0.4965,0.74257,107,45701,427.11214953271,1,0.889816978193146,"Stroop_2","internal_consistency"
"437",0.8,100,2000,0,"subject","median",0.63593,0.50063,0.7401,107,45701,427.11214953271,1,0.889816978193146,"Stroop_2","internal_consistency"
"438",0.9,100,2000,0,"subject","median",0.6391,0.5045,0.73839,107,45701,427.11214953271,1,0.889816978193146,"Stroop_2","internal_consistency"
"439",0,200,2000,0,"subject","median",0.63301,0.49029,0.74798,107,45612,426.280373831776,1,0.888084112149533,"Stroop_2","internal_consistency"
"440",0.8,200,2000,0,"subject","median",0.63354,0.48713,0.75053,107,45612,426.280373831776,1,0.888084112149533,"Stroop_2","internal_consistency"
"441",0.9,200,2000,0,"subject","median",0.63234,0.48036,0.74381,107,45612,426.280373831776,1,0.888084112149533,"Stroop_2","internal_consistency"
"442",0,0,3000,0,"subject","median",0.66708,0.53157,0.77093,107,45915,429.11214953271,1,0.893983644859813,"Stroop_2","internal_consistency"
"443",0.8,0,3000,0,"subject","median",0.66949,0.53205,0.77367,107,45915,429.11214953271,1,0.893983644859813,"Stroop_2","internal_consistency"
"444",0.9,0,3000,0,"subject","median",0.67207,0.53462,0.77375,107,45915,429.11214953271,1,0.893983644859813,"Stroop_2","internal_consistency"
"445",0,100,3000,0,"subject","median",0.64864,0.50091,0.7571,107,45787,427.915887850467,1,0.891491433021807,"Stroop_2","internal_consistency"
"446",0.8,100,3000,0,"subject","median",0.64237,0.50466,0.74444,107,45787,427.915887850467,1,0.891491433021807,"Stroop_2","internal_consistency"
"447",0.9,100,3000,0,"subject","median",0.65349,0.53151,0.75318,107,45787,427.915887850467,1,0.891491433021807,"Stroop_2","internal_consistency"
"448",0,200,3000,0,"subject","median",0.64331,0.52641,0.74718,107,45698,427.084112149533,1,0.889758566978193,"Stroop_2","internal_consistency"
"449",0.8,200,3000,0,"subject","median",0.63928,0.51022,0.74365,107,45698,427.084112149533,1,0.889758566978193,"Stroop_2","internal_consistency"
"450",0.9,200,3000,0,"subject","median",0.64799,0.51776,0.75168,107,45698,427.084112149533,1,0.889758566978193,"Stroop_2","internal_consistency"
"451",0,0,2000,1,"subject","median",0.6118,0.42138,0.74241,107,34289,320.457943925234,1,0.667620716510903,"Stroop_2","internal_consistency"
"452",0.8,0,2000,1,"subject","median",0.60654,0.4444,0.71755,107,34289,320.457943925234,1,0.667620716510903,"Stroop_2","internal_consistency"
"453",0.9,0,2000,1,"subject","median",0.60914,0.42752,0.73207,107,34289,320.457943925234,1,0.667620716510903,"Stroop_2","internal_consistency"
"454",0,100,2000,1,"subject","median",0.5838,0.42283,0.71489,107,34207,319.691588785047,1,0.666024143302181,"Stroop_2","internal_consistency"
"455",0.8,100,2000,1,"subject","median",0.58312,0.43158,0.72196,107,34207,319.691588785047,1,0.666024143302181,"Stroop_2","internal_consistency"
"456",0.9,100,2000,1,"subject","median",0.58556,0.44029,0.7081,107,34207,319.691588785047,1,0.666024143302181,"Stroop_2","internal_consistency"
"457",0,200,2000,1,"subject","median",0.59671,0.43838,0.72096,107,34108,318.766355140187,1,0.664096573208723,"Stroop_2","internal_consistency"
"458",0.8,200,2000,1,"subject","median",0.60621,0.46312,0.71401,107,34108,318.766355140187,1,0.664096573208723,"Stroop_2","internal_consistency"
"459",0.9,200,2000,1,"subject","median",0.59936,0.46056,0.71892,107,34108,318.766355140187,1,0.664096573208723,"Stroop_2","internal_consistency"
"460",0,0,3000,1,"subject","median",0.62983,0.48285,0.73752,107,34920,326.355140186916,1,0.679906542056075,"Stroop_2","internal_consistency"
"461",0.8,0,3000,1,"subject","median",0.62281,0.47153,0.73569,107,34920,326.355140186916,1,0.679906542056075,"Stroop_2","internal_consistency"
"462",0.9,0,3000,1,"subject","median",0.62373,0.47246,0.74161,107,34920,326.355140186916,1,0.679906542056075,"Stroop_2","internal_consistency"
"463",0,100,3000,1,"subject","median",0.60536,0.45132,0.72542,107,34878,325.96261682243,1,0.679088785046729,"Stroop_2","internal_consistency"
"464",0.8,100,3000,1,"subject","median",0.60448,0.46311,0.71822,107,34878,325.96261682243,1,0.679088785046729,"Stroop_2","internal_consistency"
"465",0.9,100,3000,1,"subject","median",0.60752,0.47847,0.72499,107,34878,325.96261682243,1,0.679088785046729,"Stroop_2","internal_consistency"
"466",0,200,3000,1,"subject","median",0.61623,0.47053,0.72916,107,34801,325.242990654206,1,0.677589563862928,"Stroop_2","internal_consistency"
"467",0.8,200,3000,1,"subject","median",0.61281,0.46766,0.73181,107,34801,325.242990654206,1,0.677589563862928,"Stroop_2","internal_consistency"
"468",0.9,200,3000,1,"subject","median",0.61096,0.4689,0.71762,107,34801,325.242990654206,1,0.677589563862928,"Stroop_2","internal_consistency"
"469",0,0,2000,2,"subject","median",0.66246,0.52312,0.76712,107,43788,409.233644859813,1,0.852570093457944,"Stroop_2","internal_consistency"
"470",0.8,0,2000,2,"subject","median",0.65943,0.51413,0.76209,107,43788,409.233644859813,1,0.852570093457944,"Stroop_2","internal_consistency"
"471",0.9,0,2000,2,"subject","median",0.66067,0.5122,0.76154,107,43788,409.233644859813,1,0.852570093457944,"Stroop_2","internal_consistency"
"472",0,100,2000,2,"subject","median",0.61837,0.45645,0.73719,107,43667,408.102803738318,1,0.850214174454829,"Stroop_2","internal_consistency"
"473",0.8,100,2000,2,"subject","median",0.6228,0.48598,0.74033,107,43667,408.102803738318,1,0.850214174454829,"Stroop_2","internal_consistency"
"474",0.9,100,2000,2,"subject","median",0.6194,0.48415,0.73412,107,43667,408.102803738318,1,0.850214174454829,"Stroop_2","internal_consistency"
"475",0,200,2000,2,"subject","median",0.62184,0.49146,0.73283,107,43595,407.429906542056,1,0.84881230529595,"Stroop_2","internal_consistency"
"476",0.8,200,2000,2,"subject","median",0.62687,0.49633,0.73396,107,43595,407.429906542056,1,0.84881230529595,"Stroop_2","internal_consistency"
"477",0.9,200,2000,2,"subject","median",0.62434,0.49105,0.72895,107,43595,407.429906542056,1,0.84881230529595,"Stroop_2","internal_consistency"
"478",0,0,3000,2,"subject","median",0.66543,0.53128,0.77441,107,43954,410.785046728972,1,0.855802180685358,"Stroop_2","internal_consistency"
"479",0.8,0,3000,2,"subject","median",0.65762,0.50899,0.76658,107,43954,410.785046728972,1,0.855802180685358,"Stroop_2","internal_consistency"
"480",0.9,0,3000,2,"subject","median",0.65352,0.50938,0.76669,107,43954,410.785046728972,1,0.855802180685358,"Stroop_2","internal_consistency"
"481",0,100,3000,2,"subject","median",0.62055,0.47771,0.72817,107,43830,409.626168224299,1,0.85338785046729,"Stroop_2","internal_consistency"
"482",0.8,100,3000,2,"subject","median",0.62609,0.48963,0.73338,107,43830,409.626168224299,1,0.85338785046729,"Stroop_2","internal_consistency"
"483",0.9,100,3000,2,"subject","median",0.62548,0.47738,0.73324,107,43830,409.626168224299,1,0.85338785046729,"Stroop_2","internal_consistency"
"484",0,200,3000,2,"subject","median",0.63364,0.48875,0.7409,107,43753,408.906542056075,1,0.851888629283489,"Stroop_2","internal_consistency"
"485",0.8,200,3000,2,"subject","median",0.63166,0.51313,0.7413,107,43753,408.906542056075,1,0.851888629283489,"Stroop_2","internal_consistency"
"486",0.9,200,3000,2,"subject","median",0.62953,0.48108,0.74426,107,43753,408.906542056075,1,0.851888629283489,"Stroop_2","internal_consistency"
"487",0,0,2000,3,"subject","median",0.66432,0.52531,0.77093,107,45149,421.953271028037,1,0.879069314641745,"Stroop_2","internal_consistency"
"488",0.8,0,2000,3,"subject","median",0.66317,0.51199,0.77613,107,45149,421.953271028037,1,0.879069314641745,"Stroop_2","internal_consistency"
"489",0.9,0,2000,3,"subject","median",0.66809,0.52427,0.7632,107,45149,421.953271028037,1,0.879069314641745,"Stroop_2","internal_consistency"
"490",0,100,2000,3,"subject","median",0.63617,0.49512,0.73331,107,45016,420.710280373832,1,0.876479750778816,"Stroop_2","internal_consistency"
"491",0.8,100,2000,3,"subject","median",0.64051,0.51353,0.74392,107,45016,420.710280373832,1,0.876479750778816,"Stroop_2","internal_consistency"
"492",0.9,100,2000,3,"subject","median",0.64131,0.48995,0.75186,107,45016,420.710280373832,1,0.876479750778816,"Stroop_2","internal_consistency"
"493",0,200,2000,3,"subject","median",0.63832,0.51658,0.74703,107,44925,419.859813084112,1,0.874707943925234,"Stroop_2","internal_consistency"
"494",0.8,200,2000,3,"subject","median",0.64579,0.52445,0.74632,107,44925,419.859813084112,1,0.874707943925234,"Stroop_2","internal_consistency"
"495",0.9,200,2000,3,"subject","median",0.64671,0.5301,0.73993,107,44925,419.859813084112,1,0.874707943925234,"Stroop_2","internal_consistency"
"496",0,0,3000,3,"subject","median",0.66406,0.51668,0.77735,107,45220,422.616822429907,1,0.880451713395639,"Stroop_2","internal_consistency"
"497",0.8,0,3000,3,"subject","median",0.66696,0.52094,0.77146,107,45220,422.616822429907,1,0.880451713395639,"Stroop_2","internal_consistency"
"498",0.9,0,3000,3,"subject","median",0.66569,0.52876,0.76915,107,45220,422.616822429907,1,0.880451713395639,"Stroop_2","internal_consistency"
"499",0,100,3000,3,"subject","median",0.6441,0.50331,0.74966,107,45092,421.420560747664,1,0.877959501557632,"Stroop_2","internal_consistency"
"500",0.8,100,3000,3,"subject","median",0.64134,0.51361,0.73731,107,45092,421.420560747664,1,0.877959501557632,"Stroop_2","internal_consistency"
"501",0.9,100,3000,3,"subject","median",0.64007,0.50706,0.74089,107,45092,421.420560747664,1,0.877959501557632,"Stroop_2","internal_consistency"
"502",0,200,3000,3,"subject","median",0.64481,0.52477,0.74954,107,45003,420.588785046729,1,0.876226635514019,"Stroop_2","internal_consistency"
"503",0.8,200,3000,3,"subject","median",0.64762,0.51835,0.73766,107,45003,420.588785046729,1,0.876226635514019,"Stroop_2","internal_consistency"
"504",0.9,200,3000,3,"subject","median",0.64797,0.51909,0.75225,107,45003,420.588785046729,1,0.876226635514019,"Stroop_2","internal_consistency"
"505",0,0,2000,0,"trial","median",0.66393,0.51155,0.76564,107,45829,428.308411214953,1,0.892309190031153,"Stroop_2","internal_consistency"
"506",0.8,0,2000,0,"trial","median",0.65841,0.49777,0.76358,107,45829,428.308411214953,1,0.892309190031153,"Stroop_2","internal_consistency"
"507",0.9,0,2000,0,"trial","median",0.66442,0.50681,0.76733,107,45829,428.308411214953,1,0.892309190031153,"Stroop_2","internal_consistency"
"508",0,100,2000,0,"trial","median",0.63692,0.49416,0.74735,107,45701,427.11214953271,1,0.889816978193146,"Stroop_2","internal_consistency"
"509",0.8,100,2000,0,"trial","median",0.6406,0.51419,0.74873,107,45701,427.11214953271,1,0.889816978193146,"Stroop_2","internal_consistency"
"510",0.9,100,2000,0,"trial","median",0.63471,0.48324,0.74541,107,45701,427.11214953271,1,0.889816978193146,"Stroop_2","internal_consistency"
"511",0,200,2000,0,"trial","median",0.63246,0.49136,0.75584,107,45612,426.280373831776,1,0.888084112149533,"Stroop_2","internal_consistency"
"512",0.8,200,2000,0,"trial","median",0.63256,0.4927,0.74807,107,45612,426.280373831776,1,0.888084112149533,"Stroop_2","internal_consistency"
"513",0.9,200,2000,0,"trial","median",0.63431,0.49066,0.74629,107,45612,426.280373831776,1,0.888084112149533,"Stroop_2","internal_consistency"
"514",0,0,3000,0,"trial","median",0.66935,0.50732,0.76969,107,45915,429.11214953271,1,0.893983644859813,"Stroop_2","internal_consistency"
"515",0.8,0,3000,0,"trial","median",0.66918,0.54416,0.7721,107,45915,429.11214953271,1,0.893983644859813,"Stroop_2","internal_consistency"
"516",0.9,0,3000,0,"trial","median",0.67126,0.52177,0.78256,107,45915,429.11214953271,1,0.893983644859813,"Stroop_2","internal_consistency"
"517",0,100,3000,0,"trial","median",0.64641,0.5183,0.74743,107,45787,427.915887850467,1,0.891491433021807,"Stroop_2","internal_consistency"
"518",0.8,100,3000,0,"trial","median",0.65362,0.52446,0.76138,107,45787,427.915887850467,1,0.891491433021807,"Stroop_2","internal_consistency"
"519",0.9,100,3000,0,"trial","median",0.64066,0.49302,0.75076,107,45787,427.915887850467,1,0.891491433021807,"Stroop_2","internal_consistency"
"520",0,200,3000,0,"trial","median",0.64081,0.50395,0.7457,107,45698,427.084112149533,1,0.889758566978193,"Stroop_2","internal_consistency"
"521",0.8,200,3000,0,"trial","median",0.64658,0.52239,0.74957,107,45698,427.084112149533,1,0.889758566978193,"Stroop_2","internal_consistency"
"522",0.9,200,3000,0,"trial","median",0.64212,0.48837,0.75089,107,45698,427.084112149533,1,0.889758566978193,"Stroop_2","internal_consistency"
"523",0,0,2000,1,"trial","median",0.79969,0.72,0.85587,107,34164,319.289719626168,1,0.665186915887851,"Stroop_2","internal_consistency"
"524",0.8,0,2000,1,"trial","median",0.80016,0.7269,0.85839,107,34164,319.289719626168,1,0.665186915887851,"Stroop_2","internal_consistency"
"525",0.9,0,2000,1,"trial","median",0.80288,0.7289,0.86371,107,34164,319.289719626168,1,0.665186915887851,"Stroop_2","internal_consistency"
"526",0,100,2000,1,"trial","median",0.78842,0.71596,0.84642,107,34072,318.429906542056,1,0.663395638629284,"Stroop_2","internal_consistency"
"527",0.8,100,2000,1,"trial","median",0.78606,0.70618,0.84763,107,34072,318.429906542056,1,0.663395638629284,"Stroop_2","internal_consistency"
"528",0.9,100,2000,1,"trial","median",0.78492,0.70473,0.84886,107,34072,318.429906542056,1,0.663395638629284,"Stroop_2","internal_consistency"
"529",0,200,2000,1,"trial","median",0.79517,0.7239,0.8512,107,33967,317.448598130841,1,0.661351246105919,"Stroop_2","internal_consistency"
"530",0.8,200,2000,1,"trial","median",0.79597,0.71603,0.84985,107,33967,317.448598130841,1,0.661351246105919,"Stroop_2","internal_consistency"
"531",0.9,200,2000,1,"trial","median",0.79548,0.71973,0.8533,107,33967,317.448598130841,1,0.661351246105919,"Stroop_2","internal_consistency"
"532",0,0,3000,1,"trial","median",0.79352,0.70521,0.85967,107,34757,324.831775700935,1,0.676732866043614,"Stroop_2","internal_consistency"
"533",0.8,0,3000,1,"trial","median",0.79108,0.69622,0.8511,107,34757,324.831775700935,1,0.676732866043614,"Stroop_2","internal_consistency"
"534",0.9,0,3000,1,"trial","median",0.78933,0.69109,0.85256,107,34757,324.831775700935,1,0.676732866043614,"Stroop_2","internal_consistency"
"535",0,100,3000,1,"trial","median",0.7769,0.6944,0.84123,107,34674,324.056074766355,1,0.675116822429907,"Stroop_2","internal_consistency"
"536",0.8,100,3000,1,"trial","median",0.77593,0.69899,0.84528,107,34674,324.056074766355,1,0.675116822429907,"Stroop_2","internal_consistency"
"537",0.9,100,3000,1,"trial","median",0.77722,0.68935,0.84399,107,34674,324.056074766355,1,0.675116822429907,"Stroop_2","internal_consistency"
"538",0,200,3000,1,"trial","median",0.7871,0.70993,0.84778,107,34590,323.271028037383,1,0.673481308411215,"Stroop_2","internal_consistency"
"539",0.8,200,3000,1,"trial","median",0.78619,0.70808,0.84761,107,34590,323.271028037383,1,0.673481308411215,"Stroop_2","internal_consistency"
"540",0.9,200,3000,1,"trial","median",0.78792,0.71174,0.84884,107,34590,323.271028037383,1,0.673481308411215,"Stroop_2","internal_consistency"
"541",0,0,2000,2,"trial","median",0.68224,0.53831,0.78801,107,43846,409.775700934579,1,0.85369937694704,"Stroop_2","internal_consistency"
"542",0.8,0,2000,2,"trial","median",0.67904,0.53753,0.77988,107,43846,409.775700934579,1,0.85369937694704,"Stroop_2","internal_consistency"
"543",0.9,0,2000,2,"trial","median",0.68649,0.54457,0.78328,107,43846,409.775700934579,1,0.85369937694704,"Stroop_2","internal_consistency"
"544",0,100,2000,2,"trial","median",0.65655,0.52311,0.76145,107,43723,408.626168224299,1,0.851304517133956,"Stroop_2","internal_consistency"
"545",0.8,100,2000,2,"trial","median",0.65436,0.51966,0.75311,107,43723,408.626168224299,1,0.851304517133956,"Stroop_2","internal_consistency"
"546",0.9,100,2000,2,"trial","median",0.65211,0.52159,0.75437,107,43723,408.626168224299,1,0.851304517133956,"Stroop_2","internal_consistency"
"547",0,200,2000,2,"trial","median",0.65706,0.53143,0.76825,107,43648,407.92523364486,1,0.849844236760125,"Stroop_2","internal_consistency"
"548",0.8,200,2000,2,"trial","median",0.65981,0.53449,0.7639,107,43648,407.92523364486,1,0.849844236760125,"Stroop_2","internal_consistency"
"549",0.9,200,2000,2,"trial","median",0.6602,0.53912,0.76465,107,43648,407.92523364486,1,0.849844236760125,"Stroop_2","internal_consistency"
"550",0,0,3000,2,"trial","median",0.68497,0.54128,0.78297,107,43969,410.92523364486,1,0.856094236760125,"Stroop_2","internal_consistency"
"551",0.8,0,3000,2,"trial","median",0.68659,0.55395,0.78493,107,43969,410.92523364486,1,0.856094236760125,"Stroop_2","internal_consistency"
"552",0.9,0,3000,2,"trial","median",0.68493,0.56327,0.78398,107,43969,410.92523364486,1,0.856094236760125,"Stroop_2","internal_consistency"
"553",0,100,3000,2,"trial","median",0.65993,0.55038,0.75916,107,43854,409.85046728972,1,0.853855140186916,"Stroop_2","internal_consistency"
"554",0.8,100,3000,2,"trial","median",0.65769,0.53907,0.75776,107,43854,409.85046728972,1,0.853855140186916,"Stroop_2","internal_consistency"
"555",0.9,100,3000,2,"trial","median",0.65905,0.53655,0.75318,107,43854,409.85046728972,1,0.853855140186916,"Stroop_2","internal_consistency"
"556",0,200,3000,2,"trial","median",0.66579,0.54245,0.76785,107,43773,409.093457943925,1,0.852278037383178,"Stroop_2","internal_consistency"
"557",0.8,200,3000,2,"trial","median",0.66271,0.53268,0.7664,107,43773,409.093457943925,1,0.852278037383178,"Stroop_2","internal_consistency"
"558",0.9,200,3000,2,"trial","median",0.65795,0.53129,0.75869,107,43773,409.093457943925,1,0.852278037383178,"Stroop_2","internal_consistency"
"559",0,0,2000,3,"trial","median",0.67095,0.52719,0.77431,107,45120,421.682242990654,1,0.878504672897196,"Stroop_2","internal_consistency"
"560",0.8,0,2000,3,"trial","median",0.67647,0.54706,0.77823,107,45120,421.682242990654,1,0.878504672897196,"Stroop_2","internal_consistency"
"561",0.9,0,2000,3,"trial","median",0.67144,0.5431,0.77181,107,45120,421.682242990654,1,0.878504672897196,"Stroop_2","internal_consistency"
"562",0,100,2000,3,"trial","median",0.64364,0.50118,0.74675,107,44990,420.467289719626,1,0.875973520249221,"Stroop_2","internal_consistency"
"563",0.8,100,2000,3,"trial","median",0.64233,0.50938,0.74717,107,44990,420.467289719626,1,0.875973520249221,"Stroop_2","internal_consistency"
"564",0.9,100,2000,3,"trial","median",0.64737,0.51335,0.74666,107,44990,420.467289719626,1,0.875973520249221,"Stroop_2","internal_consistency"
"565",0,200,2000,3,"trial","median",0.64892,0.50118,0.7523,107,44900,419.626168224299,1,0.874221183800623,"Stroop_2","internal_consistency"
"566",0.8,200,2000,3,"trial","median",0.64199,0.49309,0.7487,107,44900,419.626168224299,1,0.874221183800623,"Stroop_2","internal_consistency"
"567",0.9,200,2000,3,"trial","median",0.64387,0.51384,0.74517,107,44900,419.626168224299,1,0.874221183800623,"Stroop_2","internal_consistency"
"568",0,0,3000,3,"trial","median",0.67623,0.52492,0.77744,107,45189,422.327102803738,1,0.879848130841121,"Stroop_2","internal_consistency"
"569",0.8,0,3000,3,"trial","median",0.67707,0.53661,0.77166,107,45189,422.327102803738,1,0.879848130841121,"Stroop_2","internal_consistency"
"570",0.9,0,3000,3,"trial","median",0.67785,0.53194,0.78185,107,45189,422.327102803738,1,0.879848130841121,"Stroop_2","internal_consistency"
"571",0,100,3000,3,"trial","median",0.65251,0.51723,0.74919,107,45060,421.121495327103,1,0.877336448598131,"Stroop_2","internal_consistency"
"572",0.8,100,3000,3,"trial","median",0.65196,0.52015,0.7528,107,45060,421.121495327103,1,0.877336448598131,"Stroop_2","internal_consistency"
"573",0.9,100,3000,3,"trial","median",0.65488,0.52572,0.76091,107,45060,421.121495327103,1,0.877336448598131,"Stroop_2","internal_consistency"
"574",0,200,3000,3,"trial","median",0.65448,0.52674,0.76336,107,44973,420.308411214953,1,0.875642523364486,"Stroop_2","internal_consistency"
"575",0.8,200,3000,3,"trial","median",0.64276,0.48996,0.75471,107,44973,420.308411214953,1,0.875642523364486,"Stroop_2","internal_consistency"
"576",0.9,200,3000,3,"trial","median",0.64358,0.49519,0.75618,107,44973,420.308411214953,1,0.875642523364486,"Stroop_2","internal_consistency"
"577",0,0,2000,0,"subject","mean",0.7301,0.6307,0.80509,107,46135,431.168224299065,1,0.898267133956386,"Flanker_1","internal_consistency"
"578",0.8,0,2000,0,"subject","mean",0.72773,0.62144,0.80232,107,46135,431.168224299065,1,0.898267133956386,"Flanker_1","internal_consistency"
"579",0.9,0,2000,0,"subject","mean",0.73233,0.64016,0.80535,107,46135,431.168224299065,1,0.898267133956386,"Flanker_1","internal_consistency"
"580",0,100,2000,0,"subject","mean",0.71434,0.57804,0.80642,107,45876,428.747663551402,1,0.893224299065421,"Flanker_1","internal_consistency"
"581",0.8,100,2000,0,"subject","mean",0.72091,0.60438,0.81011,107,45876,428.747663551402,1,0.893224299065421,"Flanker_1","internal_consistency"
"582",0.9,100,2000,0,"subject","mean",0.71773,0.58495,0.80678,107,45876,428.747663551402,1,0.893224299065421,"Flanker_1","internal_consistency"
"583",0,200,2000,0,"subject","mean",0.65408,0.38151,0.7836,107,45715,427.242990654206,1,0.890089563862928,"Flanker_1","internal_consistency"
"584",0.8,200,2000,0,"subject","mean",0.66054,0.3834,0.79155,107,45715,427.242990654206,1,0.890089563862928,"Flanker_1","internal_consistency"
"585",0.9,200,2000,0,"subject","mean",0.64992,0.33934,0.78941,107,45715,427.242990654206,1,0.890089563862928,"Flanker_1","internal_consistency"
"586",0,0,3000,0,"subject","mean",0.70409,0.58344,0.80094,107,46174,431.532710280374,1,0.899026479750779,"Flanker_1","internal_consistency"
"587",0.8,0,3000,0,"subject","mean",0.70144,0.59071,0.78926,107,46174,431.532710280374,1,0.899026479750779,"Flanker_1","internal_consistency"
"588",0.9,0,3000,0,"subject","mean",0.70163,0.58243,0.79333,107,46174,431.532710280374,1,0.899026479750779,"Flanker_1","internal_consistency"
"589",0,100,3000,0,"subject","mean",0.68635,0.5318,0.78805,107,45915,429.11214953271,1,0.893983644859813,"Flanker_1","internal_consistency"
"590",0.8,100,3000,0,"subject","mean",0.68363,0.5532,0.7826,107,45915,429.11214953271,1,0.893983644859813,"Flanker_1","internal_consistency"
"591",0.9,100,3000,0,"subject","mean",0.68291,0.5417,0.78799,107,45915,429.11214953271,1,0.893983644859813,"Flanker_1","internal_consistency"
"592",0,200,3000,0,"subject","mean",0.62646,0.34265,0.77352,107,45754,427.607476635514,1,0.890848909657321,"Flanker_1","internal_consistency"
"593",0.8,200,3000,0,"subject","mean",0.6245,0.37677,0.77247,107,45754,427.607476635514,1,0.890848909657321,"Flanker_1","internal_consistency"
"594",0.9,200,3000,0,"subject","mean",0.62237,0.26406,0.77337,107,45754,427.607476635514,1,0.890848909657321,"Flanker_1","internal_consistency"
"595",0,0,2000,1,"subject","mean",0.86522,0.81419,0.90473,107,38007,355.205607476636,1,0.740011682242991,"Flanker_1","internal_consistency"
"596",0.8,0,2000,1,"subject","mean",0.8652,0.81154,0.90198,107,38007,355.205607476636,1,0.740011682242991,"Flanker_1","internal_consistency"
"597",0.9,0,2000,1,"subject","mean",0.86749,0.81364,0.90836,107,38007,355.205607476636,1,0.740011682242991,"Flanker_1","internal_consistency"
"598",0,100,2000,1,"subject","mean",0.86386,0.80057,0.90702,107,37782,353.102803738318,1,0.735630841121495,"Flanker_1","internal_consistency"
"599",0.8,100,2000,1,"subject","mean",0.86138,0.79879,0.90533,107,37782,353.102803738318,1,0.735630841121495,"Flanker_1","internal_consistency"
"600",0.9,100,2000,1,"subject","mean",0.86447,0.7999,0.90597,107,37782,353.102803738318,1,0.735630841121495,"Flanker_1","internal_consistency"
"601",0,200,2000,1,"subject","mean",0.85071,0.73024,0.90633,107,37677,352.121495327103,1,0.733586448598131,"Flanker_1","internal_consistency"
"602",0.8,200,2000,1,"subject","mean",0.85378,0.75744,0.90467,107,37677,352.121495327103,1,0.733586448598131,"Flanker_1","internal_consistency"
"603",0.9,200,2000,1,"subject","mean",0.85609,0.77694,0.9062,107,37677,352.121495327103,1,0.733586448598131,"Flanker_1","internal_consistency"
"604",0,0,3000,1,"subject","mean",0.86049,0.8035,0.90133,107,38829,362.88785046729,1,0.756016355140187,"Flanker_1","internal_consistency"
"605",0.8,0,3000,1,"subject","mean",0.86118,0.79965,0.90221,107,38829,362.88785046729,1,0.756016355140187,"Flanker_1","internal_consistency"
"606",0.9,0,3000,1,"subject","mean",0.86142,0.81258,0.90412,107,38829,362.88785046729,1,0.756016355140187,"Flanker_1","internal_consistency"
"607",0,100,3000,1,"subject","mean",0.85695,0.79728,0.89889,107,38617,360.906542056075,1,0.751888629283489,"Flanker_1","internal_consistency"
"608",0.8,100,3000,1,"subject","mean",0.85821,0.80355,0.89883,107,38617,360.906542056075,1,0.751888629283489,"Flanker_1","internal_consistency"
"609",0.9,100,3000,1,"subject","mean",0.85885,0.80197,0.90053,107,38617,360.906542056075,1,0.751888629283489,"Flanker_1","internal_consistency"
"610",0,200,3000,1,"subject","mean",0.84804,0.73317,0.8996,107,38519,359.990654205607,1,0.749980529595016,"Flanker_1","internal_consistency"
"611",0.8,200,3000,1,"subject","mean",0.84629,0.74055,0.90099,107,38519,359.990654205607,1,0.749980529595016,"Flanker_1","internal_consistency"
"612",0.9,200,3000,1,"subject","mean",0.84893,0.75106,0.90346,107,38519,359.990654205607,1,0.749980529595016,"Flanker_1","internal_consistency"
"613",0,0,2000,2,"subject","mean",0.83085,0.76455,0.88195,107,44466,415.570093457944,1,0.865771028037383,"Flanker_1","internal_consistency"
"614",0.8,0,2000,2,"subject","mean",0.83329,0.76324,0.8848,107,44466,415.570093457944,1,0.865771028037383,"Flanker_1","internal_consistency"
"615",0.9,0,2000,2,"subject","mean",0.83347,0.77533,0.88211,107,44466,415.570093457944,1,0.865771028037383,"Flanker_1","internal_consistency"
"616",0,100,2000,2,"subject","mean",0.82496,0.74867,0.87716,107,44220,413.271028037383,1,0.860981308411215,"Flanker_1","internal_consistency"
"617",0.8,100,2000,2,"subject","mean",0.82722,0.745,0.87829,107,44220,413.271028037383,1,0.860981308411215,"Flanker_1","internal_consistency"
"618",0.9,100,2000,2,"subject","mean",0.82593,0.75384,0.87473,107,44220,413.271028037383,1,0.860981308411215,"Flanker_1","internal_consistency"
"619",0,200,2000,2,"subject","mean",0.80191,0.66806,0.87896,107,44097,412.121495327103,1,0.858586448598131,"Flanker_1","internal_consistency"
"620",0.8,200,2000,2,"subject","mean",0.8066,0.68477,0.87757,107,44097,412.121495327103,1,0.858586448598131,"Flanker_1","internal_consistency"
"621",0.9,200,2000,2,"subject","mean",0.80047,0.66963,0.87086,107,44097,412.121495327103,1,0.858586448598131,"Flanker_1","internal_consistency"
"622",0,0,3000,2,"subject","mean",0.82749,0.74938,0.87558,107,44645,417.242990654206,1,0.869256230529595,"Flanker_1","internal_consistency"
"623",0.8,0,3000,2,"subject","mean",0.82591,0.75949,0.87984,107,44645,417.242990654206,1,0.869256230529595,"Flanker_1","internal_consistency"
"624",0.9,0,3000,2,"subject","mean",0.82579,0.7555,0.87586,107,44645,417.242990654206,1,0.869256230529595,"Flanker_1","internal_consistency"
"625",0,100,3000,2,"subject","mean",0.81736,0.74511,0.87139,107,44402,414.971962616822,1,0.86452492211838,"Flanker_1","internal_consistency"
"626",0.8,100,3000,2,"subject","mean",0.82065,0.74586,0.87708,107,44402,414.971962616822,1,0.86452492211838,"Flanker_1","internal_consistency"
"627",0.9,100,3000,2,"subject","mean",0.8197,0.73775,0.87654,107,44402,414.971962616822,1,0.86452492211838,"Flanker_1","internal_consistency"
"628",0,200,3000,2,"subject","mean",0.79415,0.64694,0.8704,107,44259,413.635514018692,1,0.861740654205608,"Flanker_1","internal_consistency"
"629",0.8,200,3000,2,"subject","mean",0.79755,0.65848,0.86627,107,44259,413.635514018692,1,0.861740654205608,"Flanker_1","internal_consistency"
"630",0.9,200,3000,2,"subject","mean",0.79917,0.67362,0.86707,107,44259,413.635514018692,1,0.861740654205608,"Flanker_1","internal_consistency"
"631",0,0,2000,3,"subject","mean",0.8094,0.74439,0.86741,107,45428,424.560747663551,1,0.884501557632399,"Flanker_1","internal_consistency"
"632",0.8,0,2000,3,"subject","mean",0.81339,0.73866,0.8653,107,45428,424.560747663551,1,0.884501557632399,"Flanker_1","internal_consistency"
"633",0.9,0,2000,3,"subject","mean",0.80941,0.7408,0.86131,107,45428,424.560747663551,1,0.884501557632399,"Flanker_1","internal_consistency"
"634",0,100,2000,3,"subject","mean",0.80011,0.7229,0.86208,107,45170,422.14953271028,1,0.879478193146417,"Flanker_1","internal_consistency"
"635",0.8,100,2000,3,"subject","mean",0.79908,0.70888,0.86109,107,45170,422.14953271028,1,0.879478193146417,"Flanker_1","internal_consistency"
"636",0.9,100,2000,3,"subject","mean",0.80337,0.72507,0.85936,107,45170,422.14953271028,1,0.879478193146417,"Flanker_1","internal_consistency"
"637",0,200,2000,3,"subject","mean",0.76891,0.60091,0.84845,107,45007,420.626168224299,1,0.876304517133956,"Flanker_1","internal_consistency"
"638",0.8,200,2000,3,"subject","mean",0.76876,0.59784,0.85073,107,45007,420.626168224299,1,0.876304517133956,"Flanker_1","internal_consistency"
"639",0.9,200,2000,3,"subject","mean",0.76569,0.59431,0.85172,107,45007,420.626168224299,1,0.876304517133956,"Flanker_1","internal_consistency"
"640",0,0,3000,3,"subject","mean",0.80729,0.73181,0.864,107,45520,425.420560747664,1,0.886292834890966,"Flanker_1","internal_consistency"
"641",0.8,0,3000,3,"subject","mean",0.81008,0.74209,0.868,107,45520,425.420560747664,1,0.886292834890966,"Flanker_1","internal_consistency"
"642",0.9,0,3000,3,"subject","mean",0.81339,0.73635,0.86815,107,45520,425.420560747664,1,0.886292834890966,"Flanker_1","internal_consistency"
"643",0,100,3000,3,"subject","mean",0.80039,0.70984,0.86321,107,45263,423.018691588785,1,0.881288940809969,"Flanker_1","internal_consistency"
"644",0.8,100,3000,3,"subject","mean",0.80141,0.72315,0.86304,107,45263,423.018691588785,1,0.881288940809969,"Flanker_1","internal_consistency"
"645",0.9,100,3000,3,"subject","mean",0.80021,0.71147,0.85876,107,45263,423.018691588785,1,0.881288940809969,"Flanker_1","internal_consistency"
"646",0,200,3000,3,"subject","mean",0.76822,0.58492,0.85416,107,45102,421.514018691589,1,0.878154205607477,"Flanker_1","internal_consistency"
"647",0.8,200,3000,3,"subject","mean",0.77564,0.64343,0.84999,107,45102,421.514018691589,1,0.878154205607477,"Flanker_1","internal_consistency"
"648",0.9,200,3000,3,"subject","mean",0.76727,0.62786,0.84822,107,45102,421.514018691589,1,0.878154205607477,"Flanker_1","internal_consistency"
"649",0,0,2000,0,"trial","mean",0.73458,0.64271,0.80907,107,46135,431.168224299065,1,0.898267133956386,"Flanker_1","internal_consistency"
"650",0.8,0,2000,0,"trial","mean",0.73248,0.63426,0.8124,107,46135,431.168224299065,1,0.898267133956386,"Flanker_1","internal_consistency"
"651",0.9,0,2000,0,"trial","mean",0.73237,0.63498,0.8113,107,46135,431.168224299065,1,0.898267133956386,"Flanker_1","internal_consistency"
"652",0,100,2000,0,"trial","mean",0.71684,0.5879,0.81461,107,45876,428.747663551402,1,0.893224299065421,"Flanker_1","internal_consistency"
"653",0.8,100,2000,0,"trial","mean",0.71544,0.59191,0.8021,107,45876,428.747663551402,1,0.893224299065421,"Flanker_1","internal_consistency"
"654",0.9,100,2000,0,"trial","mean",0.71701,0.59534,0.80236,107,45876,428.747663551402,1,0.893224299065421,"Flanker_1","internal_consistency"
"655",0,200,2000,0,"trial","mean",0.65671,0.35747,0.78788,107,45715,427.242990654206,1,0.890089563862928,"Flanker_1","internal_consistency"
"656",0.8,200,2000,0,"trial","mean",0.65422,0.3827,0.79138,107,45715,427.242990654206,1,0.890089563862928,"Flanker_1","internal_consistency"
"657",0.9,200,2000,0,"trial","mean",0.64938,0.38624,0.79142,107,45715,427.242990654206,1,0.890089563862928,"Flanker_1","internal_consistency"
"658",0,0,3000,0,"trial","mean",0.70307,0.57997,0.79569,107,46174,431.532710280374,1,0.899026479750779,"Flanker_1","internal_consistency"
"659",0.8,0,3000,0,"trial","mean",0.7021,0.57756,0.79355,107,46174,431.532710280374,1,0.899026479750779,"Flanker_1","internal_consistency"
"660",0.9,0,3000,0,"trial","mean",0.69834,0.56811,0.79709,107,46174,431.532710280374,1,0.899026479750779,"Flanker_1","internal_consistency"
"661",0,100,3000,0,"trial","mean",0.6856,0.54408,0.78513,107,45915,429.11214953271,1,0.893983644859813,"Flanker_1","internal_consistency"
"662",0.8,100,3000,0,"trial","mean",0.68958,0.53793,0.79113,107,45915,429.11214953271,1,0.893983644859813,"Flanker_1","internal_consistency"
"663",0.9,100,3000,0,"trial","mean",0.6846,0.54256,0.78088,107,45915,429.11214953271,1,0.893983644859813,"Flanker_1","internal_consistency"
"664",0,200,3000,0,"trial","mean",0.63185,0.35079,0.77707,107,45754,427.607476635514,1,0.890848909657321,"Flanker_1","internal_consistency"
"665",0.8,200,3000,0,"trial","mean",0.63633,0.33936,0.77461,107,45754,427.607476635514,1,0.890848909657321,"Flanker_1","internal_consistency"
"666",0.9,200,3000,0,"trial","mean",0.62259,0.28502,0.77527,107,45754,427.607476635514,1,0.890848909657321,"Flanker_1","internal_consistency"
"667",0,0,2000,1,"trial","mean",0.92438,0.89366,0.94619,107,37761,352.906542056075,1,0.735221962616822,"Flanker_1","internal_consistency"
"668",0.8,0,2000,1,"trial","mean",0.92478,0.89107,0.94727,107,37761,352.906542056075,1,0.735221962616822,"Flanker_1","internal_consistency"
"669",0.9,0,2000,1,"trial","mean",0.92552,0.89384,0.94786,107,37761,352.906542056075,1,0.735221962616822,"Flanker_1","internal_consistency"
"670",0,100,2000,1,"trial","mean",0.92721,0.89678,0.94906,107,37554,350.971962616822,1,0.731191588785047,"Flanker_1","internal_consistency"
"671",0.8,100,2000,1,"trial","mean",0.92728,0.89631,0.94899,107,37554,350.971962616822,1,0.731191588785047,"Flanker_1","internal_consistency"
"672",0.9,100,2000,1,"trial","mean",0.92782,0.89839,0.94824,107,37554,350.971962616822,1,0.731191588785047,"Flanker_1","internal_consistency"
"673",0,200,2000,1,"trial","mean",0.92229,0.87003,0.94782,107,37416,349.682242990654,1,0.728504672897196,"Flanker_1","internal_consistency"
"674",0.8,200,2000,1,"trial","mean",0.92334,0.87803,0.94887,107,37416,349.682242990654,1,0.728504672897196,"Flanker_1","internal_consistency"
"675",0.9,200,2000,1,"trial","mean",0.92221,0.86466,0.94994,107,37416,349.682242990654,1,0.728504672897196,"Flanker_1","internal_consistency"
"676",0,0,3000,1,"trial","mean",0.91837,0.88643,0.94222,107,38406,358.934579439252,1,0.747780373831776,"Flanker_1","internal_consistency"
"677",0.8,0,3000,1,"trial","mean",0.9181,0.88568,0.94208,107,38406,358.934579439252,1,0.747780373831776,"Flanker_1","internal_consistency"
"678",0.9,0,3000,1,"trial","mean",0.91908,0.88601,0.94196,107,38406,358.934579439252,1,0.747780373831776,"Flanker_1","internal_consistency"
"679",0,100,3000,1,"trial","mean",0.92191,0.88756,0.94404,107,38202,357.028037383178,1,0.743808411214953,"Flanker_1","internal_consistency"
"680",0.8,100,3000,1,"trial","mean",0.92188,0.89279,0.9458,107,38202,357.028037383178,1,0.743808411214953,"Flanker_1","internal_consistency"
"681",0.9,100,3000,1,"trial","mean",0.92241,0.88522,0.94743,107,38202,357.028037383178,1,0.743808411214953,"Flanker_1","internal_consistency"
"682",0,200,3000,1,"trial","mean",0.91587,0.86654,0.94423,107,38070,355.794392523364,1,0.741238317757009,"Flanker_1","internal_consistency"
"683",0.8,200,3000,1,"trial","mean",0.91563,0.85844,0.94458,107,38070,355.794392523364,1,0.741238317757009,"Flanker_1","internal_consistency"
"684",0.9,200,3000,1,"trial","mean",0.91509,0.8582,0.94582,107,38070,355.794392523364,1,0.741238317757009,"Flanker_1","internal_consistency"
"685",0,0,2000,2,"trial","mean",0.8682,0.82072,0.90669,107,44418,415.121495327103,1,0.864836448598131,"Flanker_1","internal_consistency"
"686",0.8,0,2000,2,"trial","mean",0.86776,0.82573,0.90431,107,44418,415.121495327103,1,0.864836448598131,"Flanker_1","internal_consistency"
"687",0.9,0,2000,2,"trial","mean",0.86885,0.8223,0.90878,107,44418,415.121495327103,1,0.864836448598131,"Flanker_1","internal_consistency"
"688",0,100,2000,2,"trial","mean",0.85952,0.80295,0.89931,107,44176,412.859813084112,1,0.8601246105919,"Flanker_1","internal_consistency"
"689",0.8,100,2000,2,"trial","mean",0.86371,0.80513,0.90318,107,44176,412.859813084112,1,0.8601246105919,"Flanker_1","internal_consistency"
"690",0.9,100,2000,2,"trial","mean",0.86385,0.81135,0.90515,107,44176,412.859813084112,1,0.8601246105919,"Flanker_1","internal_consistency"
"691",0,200,2000,2,"trial","mean",0.84307,0.74118,0.89462,107,44043,411.616822429907,1,0.857535046728972,"Flanker_1","internal_consistency"
"692",0.8,200,2000,2,"trial","mean",0.84353,0.7374,0.8973,107,44043,411.616822429907,1,0.857535046728972,"Flanker_1","internal_consistency"
"693",0.9,200,2000,2,"trial","mean",0.84039,0.73311,0.89743,107,44043,411.616822429907,1,0.857535046728972,"Flanker_1","internal_consistency"
"694",0,0,3000,2,"trial","mean",0.85826,0.80382,0.90029,107,44560,416.448598130841,1,0.867601246105919,"Flanker_1","internal_consistency"
"695",0.8,0,3000,2,"trial","mean",0.85879,0.79942,0.89877,107,44560,416.448598130841,1,0.867601246105919,"Flanker_1","internal_consistency"
"696",0.9,0,3000,2,"trial","mean",0.85762,0.80952,0.89978,107,44560,416.448598130841,1,0.867601246105919,"Flanker_1","internal_consistency"
"697",0,100,3000,2,"trial","mean",0.85123,0.79237,0.9005,107,44319,414.196261682243,1,0.862908878504673,"Flanker_1","internal_consistency"
"698",0.8,100,3000,2,"trial","mean",0.85287,0.79464,0.89545,107,44319,414.196261682243,1,0.862908878504673,"Flanker_1","internal_consistency"
"699",0.9,100,3000,2,"trial","mean",0.85289,0.79631,0.89617,107,44319,414.196261682243,1,0.862908878504673,"Flanker_1","internal_consistency"
"700",0,200,3000,2,"trial","mean",0.82771,0.72721,0.88837,107,44176,412.859813084112,1,0.8601246105919,"Flanker_1","internal_consistency"
"701",0.8,200,3000,2,"trial","mean",0.83066,0.72103,0.88972,107,44176,412.859813084112,1,0.8601246105919,"Flanker_1","internal_consistency"
"702",0.9,200,3000,2,"trial","mean",0.82728,0.69346,0.88573,107,44176,412.859813084112,1,0.8601246105919,"Flanker_1","internal_consistency"
"703",0,0,2000,3,"trial","mean",0.83742,0.7756,0.88519,107,45387,424.177570093458,1,0.883703271028037,"Flanker_1","internal_consistency"
"704",0.8,0,2000,3,"trial","mean",0.83988,0.78105,0.89282,107,45387,424.177570093458,1,0.883703271028037,"Flanker_1","internal_consistency"
"705",0.9,0,2000,3,"trial","mean",0.83605,0.76904,0.88425,107,45387,424.177570093458,1,0.883703271028037,"Flanker_1","internal_consistency"
"706",0,100,2000,3,"trial","mean",0.82981,0.75674,0.88106,107,45128,421.757009345794,1,0.878660436137072,"Flanker_1","internal_consistency"
"707",0.8,100,2000,3,"trial","mean",0.82946,0.76649,0.87923,107,45128,421.757009345794,1,0.878660436137072,"Flanker_1","internal_consistency"
"708",0.9,100,2000,3,"trial","mean",0.83206,0.76042,0.88215,107,45128,421.757009345794,1,0.878660436137072,"Flanker_1","internal_consistency"
