"","ACC_cutoff","RT_min","RT_max","RT_sd_cutoff","split_by","averaging_method","estimate","low","high","nPar","nTrial","nTrialperPar","pPar","pTrial","task","measure"
"1",0,0,2000,0,"subject","mean",0.58039,0.44568,0.68783,107,23529,219.897196261682,1,0.916238317757009,"Stroop_1","internal_consistency"
"2",0.8,0,2000,0,"subject","mean",0.57771,0.42373,0.6931,107,23529,219.897196261682,1,0.916238317757009,"Stroop_1","internal_consistency"
"3",0.9,0,2000,0,"subject","mean",0.58274,0.4257,0.6971,107,23529,219.897196261682,1,0.916238317757009,"Stroop_1","internal_consistency"
"4",0,100,2000,0,"subject","mean",0.57629,0.42833,0.68653,107,23506,219.682242990654,1,0.915342679127726,"Stroop_1","internal_consistency"
"5",0.8,100,2000,0,"subject","mean",0.57152,0.42768,0.68705,107,23506,219.682242990654,1,0.915342679127726,"Stroop_1","internal_consistency"
"6",0.9,100,2000,0,"subject","mean",0.57706,0.42444,0.70055,107,23506,219.682242990654,1,0.915342679127726,"Stroop_1","internal_consistency"
"7",0,200,2000,0,"subject","mean",0.56208,0.37831,0.70346,107,23488,219.514018691589,1,0.914641744548287,"Stroop_1","internal_consistency"
"8",0.8,200,2000,0,"subject","mean",0.55459,0.39361,0.67378,107,23488,219.514018691589,1,0.914641744548287,"Stroop_1","internal_consistency"
"9",0.9,200,2000,0,"subject","mean",0.56373,0.40084,0.69324,107,23488,219.514018691589,1,0.914641744548287,"Stroop_1","internal_consistency"
"10",0,0,3000,0,"subject","mean",0.56351,0.4273,0.67964,107,23619,220.738317757009,1,0.919742990654206,"Stroop_1","internal_consistency"
"11",0.8,0,3000,0,"subject","mean",0.57218,0.4338,0.69109,107,23619,220.738317757009,1,0.919742990654206,"Stroop_1","internal_consistency"
"12",0.9,0,3000,0,"subject","mean",0.5638,0.41709,0.68957,107,23619,220.738317757009,1,0.919742990654206,"Stroop_1","internal_consistency"
"13",0,100,3000,0,"subject","mean",0.57168,0.4271,0.68989,107,23596,220.523364485981,1,0.918847352024922,"Stroop_1","internal_consistency"
"14",0.8,100,3000,0,"subject","mean",0.56186,0.43415,0.68797,107,23596,220.523364485981,1,0.918847352024922,"Stroop_1","internal_consistency"
"15",0.9,100,3000,0,"subject","mean",0.56482,0.40499,0.69897,107,23596,220.523364485981,1,0.918847352024922,"Stroop_1","internal_consistency"
"16",0,200,3000,0,"subject","mean",0.54871,0.37113,0.67034,107,23578,220.355140186916,1,0.918146417445483,"Stroop_1","internal_consistency"
"17",0.8,200,3000,0,"subject","mean",0.54142,0.37842,0.66539,107,23578,220.355140186916,1,0.918146417445483,"Stroop_1","internal_consistency"
"18",0.9,200,3000,0,"subject","mean",0.54492,0.37648,0.67298,107,23578,220.355140186916,1,0.918146417445483,"Stroop_1","internal_consistency"
"19",0,0,2000,1,"subject","mean",0.47788,0.29065,0.61917,107,17535,163.878504672897,1,0.682827102803738,"Stroop_1","internal_consistency"
"20",0.8,0,2000,1,"subject","mean",0.48279,0.29029,0.62357,107,17535,163.878504672897,1,0.682827102803738,"Stroop_1","internal_consistency"
"21",0.9,0,2000,1,"subject","mean",0.4784,0.29013,0.63221,107,17535,163.878504672897,1,0.682827102803738,"Stroop_1","internal_consistency"
"22",0,100,2000,1,"subject","mean",0.50448,0.33229,0.65518,107,17508,163.626168224299,1,0.681775700934579,"Stroop_1","internal_consistency"
"23",0.8,100,2000,1,"subject","mean",0.49944,0.30038,0.65061,107,17508,163.626168224299,1,0.681775700934579,"Stroop_1","internal_consistency"
"24",0.9,100,2000,1,"subject","mean",0.49921,0.31734,0.64015,107,17508,163.626168224299,1,0.681775700934579,"Stroop_1","internal_consistency"
"25",0,200,2000,1,"subject","mean",0.56906,0.41613,0.68685,107,17487,163.429906542056,1,0.680957943925234,"Stroop_1","internal_consistency"
"26",0.8,200,2000,1,"subject","mean",0.56773,0.41985,0.68776,107,17487,163.429906542056,1,0.680957943925234,"Stroop_1","internal_consistency"
"27",0.9,200,2000,1,"subject","mean",0.5665,0.39489,0.69033,107,17487,163.429906542056,1,0.680957943925234,"Stroop_1","internal_consistency"
"28",0,0,3000,1,"subject","mean",0.6043,0.45627,0.71431,107,18157,169.691588785047,1,0.707048286604361,"Stroop_1","internal_consistency"
"29",0.8,0,3000,1,"subject","mean",0.60232,0.4668,0.71301,107,18157,169.691588785047,1,0.707048286604361,"Stroop_1","internal_consistency"
"30",0.9,0,3000,1,"subject","mean",0.60555,0.45963,0.72771,107,18157,169.691588785047,1,0.707048286604361,"Stroop_1","internal_consistency"
"31",0,100,3000,1,"subject","mean",0.62331,0.49555,0.7303,107,18133,169.467289719626,1,0.706113707165109,"Stroop_1","internal_consistency"
"32",0.8,100,3000,1,"subject","mean",0.61912,0.4805,0.73876,107,18133,169.467289719626,1,0.706113707165109,"Stroop_1","internal_consistency"
"33",0.9,100,3000,1,"subject","mean",0.62314,0.47932,0.73996,107,18133,169.467289719626,1,0.706113707165109,"Stroop_1","internal_consistency"
"34",0,200,3000,1,"subject","mean",0.65689,0.53493,0.75302,107,18115,169.299065420561,1,0.70541277258567,"Stroop_1","internal_consistency"
"35",0.8,200,3000,1,"subject","mean",0.6596,0.54639,0.74247,107,18115,169.299065420561,1,0.70541277258567,"Stroop_1","internal_consistency"
"36",0.9,200,3000,1,"subject","mean",0.65681,0.53016,0.75597,107,18115,169.299065420561,1,0.70541277258567,"Stroop_1","internal_consistency"
"37",0,0,2000,2,"subject","mean",0.6159,0.48524,0.72119,107,22443,209.747663551402,1,0.873948598130841,"Stroop_1","internal_consistency"
"38",0.8,0,2000,2,"subject","mean",0.61971,0.48338,0.72678,107,22443,209.747663551402,1,0.873948598130841,"Stroop_1","internal_consistency"
"39",0.9,0,2000,2,"subject","mean",0.61588,0.49911,0.72321,107,22443,209.747663551402,1,0.873948598130841,"Stroop_1","internal_consistency"
"40",0,100,2000,2,"subject","mean",0.63512,0.5117,0.73379,107,22422,209.551401869159,1,0.873130841121495,"Stroop_1","internal_consistency"
"41",0.8,100,2000,2,"subject","mean",0.63776,0.50766,0.7278,107,22422,209.551401869159,1,0.873130841121495,"Stroop_1","internal_consistency"
"42",0.9,100,2000,2,"subject","mean",0.64185,0.5277,0.74882,107,22422,209.551401869159,1,0.873130841121495,"Stroop_1","internal_consistency"
"43",0,200,2000,2,"subject","mean",0.60994,0.47655,0.71508,107,22406,209.401869158878,1,0.872507788161994,"Stroop_1","internal_consistency"
"44",0.8,200,2000,2,"subject","mean",0.60843,0.4507,0.71877,107,22406,209.401869158878,1,0.872507788161994,"Stroop_1","internal_consistency"
"45",0.9,200,2000,2,"subject","mean",0.61437,0.46695,0.72328,107,22406,209.401869158878,1,0.872507788161994,"Stroop_1","internal_consistency"
"46",0,0,3000,2,"subject","mean",0.60282,0.46026,0.71388,107,22606,211.271028037383,1,0.880295950155763,"Stroop_1","internal_consistency"
"47",0.8,0,3000,2,"subject","mean",0.60293,0.46899,0.71173,107,22606,211.271028037383,1,0.880295950155763,"Stroop_1","internal_consistency"
"48",0.9,0,3000,2,"subject","mean",0.60875,0.48423,0.70819,107,22606,211.271028037383,1,0.880295950155763,"Stroop_1","internal_consistency"
"49",0,100,3000,2,"subject","mean",0.62947,0.49925,0.73536,107,22585,211.07476635514,1,0.879478193146417,"Stroop_1","internal_consistency"
"50",0.8,100,3000,2,"subject","mean",0.62625,0.5102,0.73642,107,22585,211.07476635514,1,0.879478193146417,"Stroop_1","internal_consistency"
"51",0.9,100,3000,2,"subject","mean",0.6322,0.50811,0.73925,107,22585,211.07476635514,1,0.879478193146417,"Stroop_1","internal_consistency"
"52",0,200,3000,2,"subject","mean",0.59959,0.45197,0.71481,107,22569,210.92523364486,1,0.878855140186916,"Stroop_1","internal_consistency"
"53",0.8,200,3000,2,"subject","mean",0.59701,0.45983,0.72376,107,22569,210.92523364486,1,0.878855140186916,"Stroop_1","internal_consistency"
"54",0.9,200,3000,2,"subject","mean",0.6009,0.44775,0.71729,107,22569,210.92523364486,1,0.878855140186916,"Stroop_1","internal_consistency"
"55",0,0,2000,3,"subject","mean",0.61197,0.48113,0.71128,107,23174,216.579439252336,1,0.902414330218068,"Stroop_1","internal_consistency"
"56",0.8,0,2000,3,"subject","mean",0.61276,0.47486,0.72914,107,23174,216.579439252336,1,0.902414330218068,"Stroop_1","internal_consistency"
"57",0.9,0,2000,3,"subject","mean",0.61577,0.49158,0.72632,107,23174,216.579439252336,1,0.902414330218068,"Stroop_1","internal_consistency"
"58",0,100,2000,3,"subject","mean",0.61594,0.48218,0.72929,107,23151,216.364485981308,1,0.901518691588785,"Stroop_1","internal_consistency"
"59",0.8,100,2000,3,"subject","mean",0.61893,0.48382,0.72016,107,23151,216.364485981308,1,0.901518691588785,"Stroop_1","internal_consistency"
"60",0.9,100,2000,3,"subject","mean",0.6179,0.49457,0.72725,107,23151,216.364485981308,1,0.901518691588785,"Stroop_1","internal_consistency"
"61",0,200,2000,3,"subject","mean",0.59747,0.44623,0.71815,107,23133,216.196261682243,1,0.900817757009346,"Stroop_1","internal_consistency"
"62",0.8,200,2000,3,"subject","mean",0.59857,0.44893,0.71622,107,23133,216.196261682243,1,0.900817757009346,"Stroop_1","internal_consistency"
"63",0.9,200,2000,3,"subject","mean",0.59918,0.45433,0.71087,107,23133,216.196261682243,1,0.900817757009346,"Stroop_1","internal_consistency"
"64",0,0,3000,3,"subject","mean",0.60535,0.48641,0.70664,107,23242,217.214953271028,1,0.90506230529595,"Stroop_1","internal_consistency"
"65",0.8,0,3000,3,"subject","mean",0.60218,0.46342,0.71225,107,23242,217.214953271028,1,0.90506230529595,"Stroop_1","internal_consistency"
"66",0.9,0,3000,3,"subject","mean",0.59661,0.44151,0.70488,107,23242,217.214953271028,1,0.90506230529595,"Stroop_1","internal_consistency"
"67",0,100,3000,3,"subject","mean",0.60444,0.46371,0.71194,107,23219,217,1,0.904166666666667,"Stroop_1","internal_consistency"
"68",0.8,100,3000,3,"subject","mean",0.60644,0.47465,0.71284,107,23219,217,1,0.904166666666667,"Stroop_1","internal_consistency"
"69",0.9,100,3000,3,"subject","mean",0.6051,0.46763,0.71875,107,23219,217,1,0.904166666666667,"Stroop_1","internal_consistency"
"70",0,200,3000,3,"subject","mean",0.59178,0.45087,0.71034,107,23201,216.831775700935,1,0.903465732087227,"Stroop_1","internal_consistency"
"71",0.8,200,3000,3,"subject","mean",0.58846,0.44108,0.70261,107,23201,216.831775700935,1,0.903465732087227,"Stroop_1","internal_consistency"
"72",0.9,200,3000,3,"subject","mean",0.5921,0.44994,0.70861,107,23201,216.831775700935,1,0.903465732087227,"Stroop_1","internal_consistency"
"73",0,0,2000,0,"trial","mean",0.57741,0.4576,0.69634,107,23529,219.897196261682,1,0.916238317757009,"Stroop_1","internal_consistency"
"74",0.8,0,2000,0,"trial","mean",0.58005,0.44192,0.69153,107,23529,219.897196261682,1,0.916238317757009,"Stroop_1","internal_consistency"
"75",0.9,0,2000,0,"trial","mean",0.57749,0.44969,0.68973,107,23529,219.897196261682,1,0.916238317757009,"Stroop_1","internal_consistency"
"76",0,100,2000,0,"trial","mean",0.57902,0.42876,0.69143,107,23506,219.682242990654,1,0.915342679127726,"Stroop_1","internal_consistency"
"77",0.8,100,2000,0,"trial","mean",0.57622,0.41536,0.69005,107,23506,219.682242990654,1,0.915342679127726,"Stroop_1","internal_consistency"
"78",0.9,100,2000,0,"trial","mean",0.57906,0.41095,0.6953,107,23506,219.682242990654,1,0.915342679127726,"Stroop_1","internal_consistency"
"79",0,200,2000,0,"trial","mean",0.56116,0.3846,0.68299,107,23488,219.514018691589,1,0.914641744548287,"Stroop_1","internal_consistency"
"80",0.8,200,2000,0,"trial","mean",0.55968,0.37606,0.68808,107,23488,219.514018691589,1,0.914641744548287,"Stroop_1","internal_consistency"
"81",0.9,200,2000,0,"trial","mean",0.55691,0.3805,0.69225,107,23488,219.514018691589,1,0.914641744548287,"Stroop_1","internal_consistency"
"82",0,0,3000,0,"trial","mean",0.56773,0.4307,0.6871,107,23619,220.738317757009,1,0.919742990654206,"Stroop_1","internal_consistency"
"83",0.8,0,3000,0,"trial","mean",0.56665,0.40617,0.68753,107,23619,220.738317757009,1,0.919742990654206,"Stroop_1","internal_consistency"
"84",0.9,0,3000,0,"trial","mean",0.57412,0.43112,0.69556,107,23619,220.738317757009,1,0.919742990654206,"Stroop_1","internal_consistency"
"85",0,100,3000,0,"trial","mean",0.56621,0.41474,0.688,107,23596,220.523364485981,1,0.918847352024922,"Stroop_1","internal_consistency"
"86",0.8,100,3000,0,"trial","mean",0.56434,0.4136,0.6939,107,23596,220.523364485981,1,0.918847352024922,"Stroop_1","internal_consistency"
"87",0.9,100,3000,0,"trial","mean",0.56109,0.41455,0.67992,107,23596,220.523364485981,1,0.918847352024922,"Stroop_1","internal_consistency"
"88",0,200,3000,0,"trial","mean",0.54993,0.39092,0.67501,107,23578,220.355140186916,1,0.918146417445483,"Stroop_1","internal_consistency"
"89",0.8,200,3000,0,"trial","mean",0.55654,0.39143,0.68672,107,23578,220.355140186916,1,0.918146417445483,"Stroop_1","internal_consistency"
"90",0.9,200,3000,0,"trial","mean",0.55488,0.37643,0.69768,107,23578,220.355140186916,1,0.918146417445483,"Stroop_1","internal_consistency"
"91",0,0,2000,1,"trial","mean",0.86134,0.8094,0.89981,107,17516,163.700934579439,1,0.68208722741433,"Stroop_1","internal_consistency"
"92",0.8,0,2000,1,"trial","mean",0.86212,0.81136,0.89668,107,17516,163.700934579439,1,0.68208722741433,"Stroop_1","internal_consistency"
"93",0.9,0,2000,1,"trial","mean",0.8611,0.80692,0.90416,107,17516,163.700934579439,1,0.68208722741433,"Stroop_1","internal_consistency"
"94",0,100,2000,1,"trial","mean",0.87718,0.83758,0.91472,107,17495,163.504672897196,1,0.681269470404984,"Stroop_1","internal_consistency"
"95",0.8,100,2000,1,"trial","mean",0.87643,0.83465,0.91253,107,17495,163.504672897196,1,0.681269470404984,"Stroop_1","internal_consistency"
"96",0.9,100,2000,1,"trial","mean",0.8777,0.83465,0.91308,107,17495,163.504672897196,1,0.681269470404984,"Stroop_1","internal_consistency"
"97",0,200,2000,1,"trial","mean",0.86671,0.82009,0.90502,107,17481,163.373831775701,1,0.680724299065421,"Stroop_1","internal_consistency"
"98",0.8,200,2000,1,"trial","mean",0.86543,0.81586,0.90233,107,17481,163.373831775701,1,0.680724299065421,"Stroop_1","internal_consistency"
"99",0.9,200,2000,1,"trial","mean",0.86577,0.82371,0.90292,107,17481,163.373831775701,1,0.680724299065421,"Stroop_1","internal_consistency"
"100",0,0,3000,1,"trial","mean",0.86161,0.81464,0.90136,107,17979,168.028037383178,1,0.700116822429907,"Stroop_1","internal_consistency"
"101",0.8,0,3000,1,"trial","mean",0.85974,0.80962,0.8975,107,17979,168.028037383178,1,0.700116822429907,"Stroop_1","internal_consistency"
"102",0.9,0,3000,1,"trial","mean",0.86119,0.81425,0.90221,107,17979,168.028037383178,1,0.700116822429907,"Stroop_1","internal_consistency"
"103",0,100,3000,1,"trial","mean",0.87558,0.83514,0.90775,107,17958,167.831775700935,1,0.699299065420561,"Stroop_1","internal_consistency"
"104",0.8,100,3000,1,"trial","mean",0.87622,0.83327,0.90837,107,17958,167.831775700935,1,0.699299065420561,"Stroop_1","internal_consistency"
"105",0.9,100,3000,1,"trial","mean",0.8752,0.83337,0.91021,107,17958,167.831775700935,1,0.699299065420561,"Stroop_1","internal_consistency"
"106",0,200,3000,1,"trial","mean",0.86529,0.82268,0.90446,107,17944,167.700934579439,1,0.698753894080997,"Stroop_1","internal_consistency"
"107",0.8,200,3000,1,"trial","mean",0.86312,0.81019,0.90528,107,17944,167.700934579439,1,0.698753894080997,"Stroop_1","internal_consistency"
"108",0.9,200,3000,1,"trial","mean",0.86506,0.81963,0.90028,107,17944,167.700934579439,1,0.698753894080997,"Stroop_1","internal_consistency"
"109",0,0,2000,2,"trial","mean",0.73763,0.6454,0.81258,107,22472,210.018691588785,1,0.875077881619938,"Stroop_1","internal_consistency"
"110",0.8,0,2000,2,"trial","mean",0.73562,0.64373,0.80839,107,22472,210.018691588785,1,0.875077881619938,"Stroop_1","internal_consistency"
"111",0.9,0,2000,2,"trial","mean",0.73628,0.64868,0.80542,107,22472,210.018691588785,1,0.875077881619938,"Stroop_1","internal_consistency"
"112",0,100,2000,2,"trial","mean",0.7318,0.64568,0.80443,107,22451,209.822429906542,1,0.874260124610592,"Stroop_1","internal_consistency"
"113",0.8,100,2000,2,"trial","mean",0.73488,0.63878,0.81192,107,22451,209.822429906542,1,0.874260124610592,"Stroop_1","internal_consistency"
"114",0.9,100,2000,2,"trial","mean",0.7348,0.64131,0.80665,107,22451,209.822429906542,1,0.874260124610592,"Stroop_1","internal_consistency"
"115",0,200,2000,2,"trial","mean",0.71509,0.60827,0.79825,107,22435,209.672897196262,1,0.87363707165109,"Stroop_1","internal_consistency"
"116",0.8,200,2000,2,"trial","mean",0.71686,0.5973,0.79934,107,22435,209.672897196262,1,0.87363707165109,"Stroop_1","internal_consistency"
"117",0.9,200,2000,2,"trial","mean",0.71527,0.60637,0.79975,107,22435,209.672897196262,1,0.87363707165109,"Stroop_1","internal_consistency"
"118",0,0,3000,2,"trial","mean",0.73554,0.64788,0.79871,107,22582,211.046728971963,1,0.879361370716511,"Stroop_1","internal_consistency"
"119",0.8,0,3000,2,"trial","mean",0.73401,0.64892,0.80692,107,22582,211.046728971963,1,0.879361370716511,"Stroop_1","internal_consistency"
"120",0.9,0,3000,2,"trial","mean",0.73507,0.64736,0.80671,107,22582,211.046728971963,1,0.879361370716511,"Stroop_1","internal_consistency"
"121",0,100,3000,2,"trial","mean",0.73188,0.64856,0.80887,107,22561,210.85046728972,1,0.878543613707165,"Stroop_1","internal_consistency"
"122",0.8,100,3000,2,"trial","mean",0.73115,0.6312,0.80947,107,22561,210.85046728972,1,0.878543613707165,"Stroop_1","internal_consistency"
"123",0.9,100,3000,2,"trial","mean",0.73284,0.63357,0.81595,107,22561,210.85046728972,1,0.878543613707165,"Stroop_1","internal_consistency"
"124",0,200,3000,2,"trial","mean",0.71546,0.60207,0.80157,107,22545,210.700934579439,1,0.877920560747664,"Stroop_1","internal_consistency"
"125",0.8,200,3000,2,"trial","mean",0.71391,0.60061,0.80103,107,22545,210.700934579439,1,0.877920560747664,"Stroop_1","internal_consistency"
"126",0.9,200,3000,2,"trial","mean",0.71494,0.59378,0.80786,107,22545,210.700934579439,1,0.877920560747664,"Stroop_1","internal_consistency"
"127",0,0,2000,3,"trial","mean",0.68965,0.58361,0.77915,107,23183,216.663551401869,1,0.902764797507788,"Stroop_1","internal_consistency"
"128",0.8,0,2000,3,"trial","mean",0.68639,0.58345,0.76545,107,23183,216.663551401869,1,0.902764797507788,"Stroop_1","internal_consistency"
"129",0.9,0,2000,3,"trial","mean",0.68689,0.58854,0.77167,107,23183,216.663551401869,1,0.902764797507788,"Stroop_1","internal_consistency"
"130",0,100,2000,3,"trial","mean",0.68536,0.57401,0.77072,107,23160,216.448598130841,1,0.901869158878505,"Stroop_1","internal_consistency"
"131",0.8,100,2000,3,"trial","mean",0.68633,0.56522,0.77156,107,23160,216.448598130841,1,0.901869158878505,"Stroop_1","internal_consistency"
"132",0.9,100,2000,3,"trial","mean",0.68629,0.56606,0.76928,107,23160,216.448598130841,1,0.901869158878505,"Stroop_1","internal_consistency"
"133",0,200,2000,3,"trial","mean",0.67345,0.56157,0.76361,107,23141,216.271028037383,1,0.901129283489097,"Stroop_1","internal_consistency"
"134",0.8,200,2000,3,"trial","mean",0.67545,0.56384,0.76625,107,23141,216.271028037383,1,0.901129283489097,"Stroop_1","internal_consistency"
"135",0.9,200,2000,3,"trial","mean",0.67895,0.56875,0.76919,107,23141,216.271028037383,1,0.901129283489097,"Stroop_1","internal_consistency"
"136",0,0,3000,3,"trial","mean",0.67984,0.56185,0.76963,107,23249,217.280373831776,1,0.905334890965732,"Stroop_1","internal_consistency"
"137",0.8,0,3000,3,"trial","mean",0.67757,0.56023,0.77444,107,23249,217.280373831776,1,0.905334890965732,"Stroop_1","internal_consistency"
"138",0.9,0,3000,3,"trial","mean",0.67664,0.56775,0.76836,107,23249,217.280373831776,1,0.905334890965732,"Stroop_1","internal_consistency"
"139",0,100,3000,3,"trial","mean",0.68016,0.55823,0.7686,107,23226,217.065420560748,1,0.904439252336449,"Stroop_1","internal_consistency"
"140",0.8,100,3000,3,"trial","mean",0.68405,0.57114,0.77612,107,23226,217.065420560748,1,0.904439252336449,"Stroop_1","internal_consistency"
"141",0.9,100,3000,3,"trial","mean",0.68237,0.57304,0.77603,107,23226,217.065420560748,1,0.904439252336449,"Stroop_1","internal_consistency"
"142",0,200,3000,3,"trial","mean",0.67545,0.54156,0.76975,107,23207,216.88785046729,1,0.903699376947041,"Stroop_1","internal_consistency"
"143",0.8,200,3000,3,"trial","mean",0.67638,0.56392,0.763,107,23207,216.88785046729,1,0.903699376947041,"Stroop_1","internal_consistency"
"144",0.9,200,3000,3,"trial","mean",0.66929,0.55303,0.76326,107,23207,216.88785046729,1,0.903699376947041,"Stroop_1","internal_consistency"
"145",0,0,2000,0,"subject","median",0.59981,0.44123,0.71946,107,23529,219.897196261682,1,0.916238317757009,"Stroop_1","internal_consistency"
"146",0.8,0,2000,0,"subject","median",0.59592,0.45481,0.71373,107,23529,219.897196261682,1,0.916238317757009,"Stroop_1","internal_consistency"
"147",0.9,0,2000,0,"subject","median",0.60261,0.46338,0.71293,107,23529,219.897196261682,1,0.916238317757009,"Stroop_1","internal_consistency"
"148",0,100,2000,0,"subject","median",0.62696,0.46326,0.75442,107,23506,219.682242990654,1,0.915342679127726,"Stroop_1","internal_consistency"
"149",0.8,100,2000,0,"subject","median",0.63051,0.47038,0.7403,107,23506,219.682242990654,1,0.915342679127726,"Stroop_1","internal_consistency"
"150",0.9,100,2000,0,"subject","median",0.62762,0.47069,0.7497,107,23506,219.682242990654,1,0.915342679127726,"Stroop_1","internal_consistency"
"151",0,200,2000,0,"subject","median",0.62811,0.49574,0.72939,107,23488,219.514018691589,1,0.914641744548287,"Stroop_1","internal_consistency"
"152",0.8,200,2000,0,"subject","median",0.63295,0.51588,0.74219,107,23488,219.514018691589,1,0.914641744548287,"Stroop_1","internal_consistency"
"153",0.9,200,2000,0,"subject","median",0.62916,0.50843,0.73263,107,23488,219.514018691589,1,0.914641744548287,"Stroop_1","internal_consistency"
"154",0,0,3000,0,"subject","median",0.61423,0.46293,0.72296,107,23619,220.738317757009,1,0.919742990654206,"Stroop_1","internal_consistency"
"155",0.8,0,3000,0,"subject","median",0.61414,0.48327,0.72371,107,23619,220.738317757009,1,0.919742990654206,"Stroop_1","internal_consistency"
"156",0.9,0,3000,0,"subject","median",0.61035,0.45702,0.71588,107,23619,220.738317757009,1,0.919742990654206,"Stroop_1","internal_consistency"
"157",0,100,3000,0,"subject","median",0.64545,0.50287,0.75492,107,23596,220.523364485981,1,0.918847352024922,"Stroop_1","internal_consistency"
"158",0.8,100,3000,0,"subject","median",0.64528,0.4933,0.75603,107,23596,220.523364485981,1,0.918847352024922,"Stroop_1","internal_consistency"
"159",0.9,100,3000,0,"subject","median",0.64541,0.4782,0.75719,107,23596,220.523364485981,1,0.918847352024922,"Stroop_1","internal_consistency"
"160",0,200,3000,0,"subject","median",0.64444,0.51058,0.75624,107,23578,220.355140186916,1,0.918146417445483,"Stroop_1","internal_consistency"
"161",0.8,200,3000,0,"subject","median",0.63766,0.50181,0.74149,107,23578,220.355140186916,1,0.918146417445483,"Stroop_1","internal_consistency"
"162",0.9,200,3000,0,"subject","median",0.64574,0.51441,0.75101,107,23578,220.355140186916,1,0.918146417445483,"Stroop_1","internal_consistency"
"163",0,0,2000,1,"subject","median",0.4223,0.20725,0.5893,107,17535,163.878504672897,1,0.682827102803738,"Stroop_1","internal_consistency"
"164",0.8,0,2000,1,"subject","median",0.41764,0.21427,0.60501,107,17535,163.878504672897,1,0.682827102803738,"Stroop_1","internal_consistency"
"165",0.9,0,2000,1,"subject","median",0.42359,0.21737,0.59961,107,17535,163.878504672897,1,0.682827102803738,"Stroop_1","internal_consistency"
"166",0,100,2000,1,"subject","median",0.46852,0.22691,0.65099,107,17508,163.626168224299,1,0.681775700934579,"Stroop_1","internal_consistency"
"167",0.8,100,2000,1,"subject","median",0.45961,0.13796,0.63387,107,17508,163.626168224299,1,0.681775700934579,"Stroop_1","internal_consistency"
"168",0.9,100,2000,1,"subject","median",0.4631,0.13905,0.63629,107,17508,163.626168224299,1,0.681775700934579,"Stroop_1","internal_consistency"
"169",0,200,2000,1,"subject","median",0.52008,0.36213,0.65196,107,17487,163.429906542056,1,0.680957943925234,"Stroop_1","internal_consistency"
"170",0.8,200,2000,1,"subject","median",0.51499,0.34419,0.66012,107,17487,163.429906542056,1,0.680957943925234,"Stroop_1","internal_consistency"
"171",0.9,200,2000,1,"subject","median",0.51618,0.336,0.65873,107,17487,163.429906542056,1,0.680957943925234,"Stroop_1","internal_consistency"
"172",0,0,3000,1,"subject","median",0.55118,0.3986,0.6783,107,18157,169.691588785047,1,0.707048286604361,"Stroop_1","internal_consistency"
"173",0.8,0,3000,1,"subject","median",0.55492,0.39329,0.67566,107,18157,169.691588785047,1,0.707048286604361,"Stroop_1","internal_consistency"
"174",0.9,0,3000,1,"subject","median",0.55225,0.39394,0.6789,107,18157,169.691588785047,1,0.707048286604361,"Stroop_1","internal_consistency"
"175",0,100,3000,1,"subject","median",0.57536,0.39114,0.70382,107,18133,169.467289719626,1,0.706113707165109,"Stroop_1","internal_consistency"
"176",0.8,100,3000,1,"subject","median",0.57699,0.36873,0.70979,107,18133,169.467289719626,1,0.706113707165109,"Stroop_1","internal_consistency"
"177",0.9,100,3000,1,"subject","median",0.57394,0.38367,0.70253,107,18133,169.467289719626,1,0.706113707165109,"Stroop_1","internal_consistency"
"178",0,200,3000,1,"subject","median",0.60868,0.47654,0.72723,107,18115,169.299065420561,1,0.70541277258567,"Stroop_1","internal_consistency"
"179",0.8,200,3000,1,"subject","median",0.61095,0.47236,0.72249,107,18115,169.299065420561,1,0.70541277258567,"Stroop_1","internal_consistency"
"180",0.9,200,3000,1,"subject","median",0.61251,0.47769,0.72886,107,18115,169.299065420561,1,0.70541277258567,"Stroop_1","internal_consistency"
"181",0,0,2000,2,"subject","median",0.5707,0.41415,0.68686,107,22443,209.747663551402,1,0.873948598130841,"Stroop_1","internal_consistency"
"182",0.8,0,2000,2,"subject","median",0.57094,0.41274,0.69275,107,22443,209.747663551402,1,0.873948598130841,"Stroop_1","internal_consistency"
"183",0.9,0,2000,2,"subject","median",0.5703,0.40585,0.69719,107,22443,209.747663551402,1,0.873948598130841,"Stroop_1","internal_consistency"
"184",0,100,2000,2,"subject","median",0.62232,0.4673,0.74577,107,22422,209.551401869159,1,0.873130841121495,"Stroop_1","internal_consistency"
"185",0.8,100,2000,2,"subject","median",0.62113,0.4673,0.73655,107,22422,209.551401869159,1,0.873130841121495,"Stroop_1","internal_consistency"
"186",0.9,100,2000,2,"subject","median",0.62283,0.46959,0.75173,107,22422,209.551401869159,1,0.873130841121495,"Stroop_1","internal_consistency"
"187",0,200,2000,2,"subject","median",0.60778,0.46507,0.72517,107,22406,209.401869158878,1,0.872507788161994,"Stroop_1","internal_consistency"
"188",0.8,200,2000,2,"subject","median",0.60775,0.47289,0.72119,107,22406,209.401869158878,1,0.872507788161994,"Stroop_1","internal_consistency"
"189",0.9,200,2000,2,"subject","median",0.60936,0.46739,0.7218,107,22406,209.401869158878,1,0.872507788161994,"Stroop_1","internal_consistency"
"190",0,0,3000,2,"subject","median",0.57841,0.43119,0.70057,107,22606,211.271028037383,1,0.880295950155763,"Stroop_1","internal_consistency"
"191",0.8,0,3000,2,"subject","median",0.57702,0.42134,0.70002,107,22606,211.271028037383,1,0.880295950155763,"Stroop_1","internal_consistency"
"192",0.9,0,3000,2,"subject","median",0.57901,0.41772,0.69437,107,22606,211.271028037383,1,0.880295950155763,"Stroop_1","internal_consistency"
"193",0,100,3000,2,"subject","median",0.6331,0.48889,0.75021,107,22585,211.07476635514,1,0.879478193146417,"Stroop_1","internal_consistency"
"194",0.8,100,3000,2,"subject","median",0.63829,0.47392,0.75454,107,22585,211.07476635514,1,0.879478193146417,"Stroop_1","internal_consistency"
"195",0.9,100,3000,2,"subject","median",0.62961,0.46272,0.74767,107,22585,211.07476635514,1,0.879478193146417,"Stroop_1","internal_consistency"
"196",0,200,3000,2,"subject","median",0.62464,0.4627,0.74082,107,22569,210.92523364486,1,0.878855140186916,"Stroop_1","internal_consistency"
"197",0.8,200,3000,2,"subject","median",0.61549,0.4719,0.72936,107,22569,210.92523364486,1,0.878855140186916,"Stroop_1","internal_consistency"
"198",0.9,200,3000,2,"subject","median",0.62037,0.47833,0.72378,107,22569,210.92523364486,1,0.878855140186916,"Stroop_1","internal_consistency"
"199",0,0,2000,3,"subject","median",0.60008,0.44744,0.72154,107,23174,216.579439252336,1,0.902414330218068,"Stroop_1","internal_consistency"
"200",0.8,0,2000,3,"subject","median",0.59565,0.4478,0.71802,107,23174,216.579439252336,1,0.902414330218068,"Stroop_1","internal_consistency"
"201",0.9,0,2000,3,"subject","median",0.59932,0.44572,0.71834,107,23174,216.579439252336,1,0.902414330218068,"Stroop_1","internal_consistency"
"202",0,100,2000,3,"subject","median",0.62814,0.4833,0.74047,107,23151,216.364485981308,1,0.901518691588785,"Stroop_1","internal_consistency"
"203",0.8,100,2000,3,"subject","median",0.63603,0.49787,0.74705,107,23151,216.364485981308,1,0.901518691588785,"Stroop_1","internal_consistency"
"204",0.9,100,2000,3,"subject","median",0.63374,0.46727,0.73995,107,23151,216.364485981308,1,0.901518691588785,"Stroop_1","internal_consistency"
"205",0,200,2000,3,"subject","median",0.62824,0.50188,0.72895,107,23133,216.196261682243,1,0.900817757009346,"Stroop_1","internal_consistency"
"206",0.8,200,2000,3,"subject","median",0.63333,0.50606,0.733,107,23133,216.196261682243,1,0.900817757009346,"Stroop_1","internal_consistency"
"207",0.9,200,2000,3,"subject","median",0.63609,0.50108,0.73112,107,23133,216.196261682243,1,0.900817757009346,"Stroop_1","internal_consistency"
"208",0,0,3000,3,"subject","median",0.59938,0.44214,0.71145,107,23242,217.214953271028,1,0.90506230529595,"Stroop_1","internal_consistency"
"209",0.8,0,3000,3,"subject","median",0.60916,0.45366,0.72897,107,23242,217.214953271028,1,0.90506230529595,"Stroop_1","internal_consistency"
"210",0.9,0,3000,3,"subject","median",0.60292,0.45701,0.72614,107,23242,217.214953271028,1,0.90506230529595,"Stroop_1","internal_consistency"
"211",0,100,3000,3,"subject","median",0.63878,0.49938,0.74439,107,23219,217,1,0.904166666666667,"Stroop_1","internal_consistency"
"212",0.8,100,3000,3,"subject","median",0.6377,0.47203,0.75465,107,23219,217,1,0.904166666666667,"Stroop_1","internal_consistency"
"213",0.9,100,3000,3,"subject","median",0.63675,0.48146,0.74734,107,23219,217,1,0.904166666666667,"Stroop_1","internal_consistency"
"214",0,200,3000,3,"subject","median",0.63529,0.50189,0.74792,107,23201,216.831775700935,1,0.903465732087227,"Stroop_1","internal_consistency"
"215",0.8,200,3000,3,"subject","median",0.62905,0.48558,0.73547,107,23201,216.831775700935,1,0.903465732087227,"Stroop_1","internal_consistency"
"216",0.9,200,3000,3,"subject","median",0.63637,0.50759,0.74387,107,23201,216.831775700935,1,0.903465732087227,"Stroop_1","internal_consistency"
"217",0,0,2000,0,"trial","median",0.59798,0.4476,0.71836,107,23529,219.897196261682,1,0.916238317757009,"Stroop_1","internal_consistency"
"218",0.8,0,2000,0,"trial","median",0.59967,0.44541,0.71999,107,23529,219.897196261682,1,0.916238317757009,"Stroop_1","internal_consistency"
"219",0.9,0,2000,0,"trial","median",0.59708,0.43698,0.71657,107,23529,219.897196261682,1,0.916238317757009,"Stroop_1","internal_consistency"
"220",0,100,2000,0,"trial","median",0.6293,0.49229,0.7455,107,23506,219.682242990654,1,0.915342679127726,"Stroop_1","internal_consistency"
"221",0.8,100,2000,0,"trial","median",0.62849,0.46569,0.74944,107,23506,219.682242990654,1,0.915342679127726,"Stroop_1","internal_consistency"
"222",0.9,100,2000,0,"trial","median",0.63126,0.46987,0.7383,107,23506,219.682242990654,1,0.915342679127726,"Stroop_1","internal_consistency"
"223",0,200,2000,0,"trial","median",0.63188,0.52001,0.72993,107,23488,219.514018691589,1,0.914641744548287,"Stroop_1","internal_consistency"
"224",0.8,200,2000,0,"trial","median",0.63718,0.51848,0.75062,107,23488,219.514018691589,1,0.914641744548287,"Stroop_1","internal_consistency"
"225",0.9,200,2000,0,"trial","median",0.62789,0.49364,0.74215,107,23488,219.514018691589,1,0.914641744548287,"Stroop_1","internal_consistency"
"226",0,0,3000,0,"trial","median",0.61918,0.494,0.72739,107,23619,220.738317757009,1,0.919742990654206,"Stroop_1","internal_consistency"
"227",0.8,0,3000,0,"trial","median",0.61594,0.48094,0.72582,107,23619,220.738317757009,1,0.919742990654206,"Stroop_1","internal_consistency"
"228",0.9,0,3000,0,"trial","median",0.61596,0.45415,0.72323,107,23619,220.738317757009,1,0.919742990654206,"Stroop_1","internal_consistency"
"229",0,100,3000,0,"trial","median",0.64723,0.50803,0.75001,107,23596,220.523364485981,1,0.918847352024922,"Stroop_1","internal_consistency"
"230",0.8,100,3000,0,"trial","median",0.64562,0.50307,0.75058,107,23596,220.523364485981,1,0.918847352024922,"Stroop_1","internal_consistency"
"231",0.9,100,3000,0,"trial","median",0.64538,0.5107,0.75115,107,23596,220.523364485981,1,0.918847352024922,"Stroop_1","internal_consistency"
"232",0,200,3000,0,"trial","median",0.64286,0.5222,0.7439,107,23578,220.355140186916,1,0.918146417445483,"Stroop_1","internal_consistency"
"233",0.8,200,3000,0,"trial","median",0.64951,0.52601,0.74438,107,23578,220.355140186916,1,0.918146417445483,"Stroop_1","internal_consistency"
"234",0.9,200,3000,0,"trial","median",0.64055,0.50759,0.74311,107,23578,220.355140186916,1,0.918146417445483,"Stroop_1","internal_consistency"
"235",0,0,2000,1,"trial","median",0.75392,0.66328,0.82919,107,17516,163.700934579439,1,0.68208722741433,"Stroop_1","internal_consistency"
"236",0.8,0,2000,1,"trial","median",0.75261,0.65828,0.82275,107,17516,163.700934579439,1,0.68208722741433,"Stroop_1","internal_consistency"
"237",0.9,0,2000,1,"trial","median",0.75162,0.65891,0.82029,107,17516,163.700934579439,1,0.68208722741433,"Stroop_1","internal_consistency"
"238",0,100,2000,1,"trial","median",0.80231,0.7303,0.85999,107,17495,163.504672897196,1,0.681269470404984,"Stroop_1","internal_consistency"
"239",0.8,100,2000,1,"trial","median",0.80051,0.72749,0.85552,107,17495,163.504672897196,1,0.681269470404984,"Stroop_1","internal_consistency"
"240",0.9,100,2000,1,"trial","median",0.8014,0.72657,0.86279,107,17495,163.504672897196,1,0.681269470404984,"Stroop_1","internal_consistency"
"241",0,200,2000,1,"trial","median",0.77639,0.70804,0.84032,107,17481,163.373831775701,1,0.680724299065421,"Stroop_1","internal_consistency"
"242",0.8,200,2000,1,"trial","median",0.7764,0.69291,0.84029,107,17481,163.373831775701,1,0.680724299065421,"Stroop_1","internal_consistency"
"243",0.9,200,2000,1,"trial","median",0.77603,0.70895,0.83878,107,17481,163.373831775701,1,0.680724299065421,"Stroop_1","internal_consistency"
"244",0,0,3000,1,"trial","median",0.76224,0.68123,0.8353,107,17979,168.028037383178,1,0.700116822429907,"Stroop_1","internal_consistency"
"245",0.8,0,3000,1,"trial","median",0.75595,0.656,0.82306,107,17979,168.028037383178,1,0.700116822429907,"Stroop_1","internal_consistency"
"246",0.9,0,3000,1,"trial","median",0.75865,0.65869,0.82737,107,17979,168.028037383178,1,0.700116822429907,"Stroop_1","internal_consistency"
"247",0,100,3000,1,"trial","median",0.80582,0.73422,0.86011,107,17958,167.831775700935,1,0.699299065420561,"Stroop_1","internal_consistency"
"248",0.8,100,3000,1,"trial","median",0.80646,0.7379,0.86395,107,17958,167.831775700935,1,0.699299065420561,"Stroop_1","internal_consistency"
"249",0.9,100,3000,1,"trial","median",0.80269,0.71812,0.85866,107,17958,167.831775700935,1,0.699299065420561,"Stroop_1","internal_consistency"
"250",0,200,3000,1,"trial","median",0.78009,0.70633,0.84221,107,17944,167.700934579439,1,0.698753894080997,"Stroop_1","internal_consistency"
"251",0.8,200,3000,1,"trial","median",0.78205,0.70395,0.84595,107,17944,167.700934579439,1,0.698753894080997,"Stroop_1","internal_consistency"
"252",0.9,200,3000,1,"trial","median",0.78119,0.70577,0.84223,107,17944,167.700934579439,1,0.698753894080997,"Stroop_1","internal_consistency"
"253",0,0,2000,2,"trial","median",0.61589,0.46777,0.72337,107,22472,210.018691588785,1,0.875077881619938,"Stroop_1","internal_consistency"
"254",0.8,0,2000,2,"trial","median",0.61438,0.47794,0.72776,107,22472,210.018691588785,1,0.875077881619938,"Stroop_1","internal_consistency"
"255",0.9,0,2000,2,"trial","median",0.62059,0.48902,0.73286,107,22472,210.018691588785,1,0.875077881619938,"Stroop_1","internal_consistency"
"256",0,100,2000,2,"trial","median",0.64766,0.50475,0.75676,107,22451,209.822429906542,1,0.874260124610592,"Stroop_1","internal_consistency"
"257",0.8,100,2000,2,"trial","median",0.64214,0.50109,0.75258,107,22451,209.822429906542,1,0.874260124610592,"Stroop_1","internal_consistency"
"258",0.9,100,2000,2,"trial","median",0.64402,0.51638,0.7463,107,22451,209.822429906542,1,0.874260124610592,"Stroop_1","internal_consistency"
"259",0,200,2000,2,"trial","median",0.63573,0.50025,0.73339,107,22435,209.672897196262,1,0.87363707165109,"Stroop_1","internal_consistency"
"260",0.8,200,2000,2,"trial","median",0.64065,0.52547,0.74175,107,22435,209.672897196262,1,0.87363707165109,"Stroop_1","internal_consistency"
"261",0.9,200,2000,2,"trial","median",0.63956,0.52527,0.73894,107,22435,209.672897196262,1,0.87363707165109,"Stroop_1","internal_consistency"
"262",0,0,3000,2,"trial","median",0.62211,0.51122,0.72686,107,22582,211.046728971963,1,0.879361370716511,"Stroop_1","internal_consistency"
"263",0.8,0,3000,2,"trial","median",0.62646,0.48356,0.73141,107,22582,211.046728971963,1,0.879361370716511,"Stroop_1","internal_consistency"
"264",0.9,0,3000,2,"trial","median",0.61823,0.4692,0.72471,107,22582,211.046728971963,1,0.879361370716511,"Stroop_1","internal_consistency"
"265",0,100,3000,2,"trial","median",0.65177,0.48546,0.75565,107,22561,210.85046728972,1,0.878543613707165,"Stroop_1","internal_consistency"
"266",0.8,100,3000,2,"trial","median",0.65777,0.50268,0.76208,107,22561,210.85046728972,1,0.878543613707165,"Stroop_1","internal_consistency"
"267",0.9,100,3000,2,"trial","median",0.65542,0.51749,0.76108,107,22561,210.85046728972,1,0.878543613707165,"Stroop_1","internal_consistency"
"268",0,200,3000,2,"trial","median",0.6495,0.52829,0.75554,107,22545,210.700934579439,1,0.877920560747664,"Stroop_1","internal_consistency"
"269",0.8,200,3000,2,"trial","median",0.65011,0.5187,0.75241,107,22545,210.700934579439,1,0.877920560747664,"Stroop_1","internal_consistency"
"270",0.9,200,3000,2,"trial","median",0.64773,0.5157,0.75214,107,22545,210.700934579439,1,0.877920560747664,"Stroop_1","internal_consistency"
"271",0,0,2000,3,"trial","median",0.60371,0.42897,0.72627,107,23183,216.663551401869,1,0.902764797507788,"Stroop_1","internal_consistency"
"272",0.8,0,2000,3,"trial","median",0.60957,0.4569,0.72251,107,23183,216.663551401869,1,0.902764797507788,"Stroop_1","internal_consistency"
"273",0.9,0,2000,3,"trial","median",0.60909,0.46282,0.71541,107,23183,216.663551401869,1,0.902764797507788,"Stroop_1","internal_consistency"
"274",0,100,2000,3,"trial","median",0.64492,0.49342,0.75928,107,23160,216.448598130841,1,0.901869158878505,"Stroop_1","internal_consistency"
"275",0.8,100,2000,3,"trial","median",0.64344,0.49028,0.76038,107,23160,216.448598130841,1,0.901869158878505,"Stroop_1","internal_consistency"
"276",0.9,100,2000,3,"trial","median",0.64392,0.49433,0.75142,107,23160,216.448598130841,1,0.901869158878505,"Stroop_1","internal_consistency"
"277",0,200,2000,3,"trial","median",0.64162,0.51166,0.74483,107,23141,216.271028037383,1,0.901129283489097,"Stroop_1","internal_consistency"
"278",0.8,200,2000,3,"trial","median",0.64014,0.51133,0.7431,107,23141,216.271028037383,1,0.901129283489097,"Stroop_1","internal_consistency"
"279",0.9,200,2000,3,"trial","median",0.64468,0.52182,0.74634,107,23141,216.271028037383,1,0.901129283489097,"Stroop_1","internal_consistency"
"280",0,0,3000,3,"trial","median",0.6105,0.46749,0.72012,107,23249,217.280373831776,1,0.905334890965732,"Stroop_1","internal_consistency"
"281",0.8,0,3000,3,"trial","median",0.61251,0.46461,0.73057,107,23249,217.280373831776,1,0.905334890965732,"Stroop_1","internal_consistency"
"282",0.9,0,3000,3,"trial","median",0.6137,0.46129,0.7276,107,23249,217.280373831776,1,0.905334890965732,"Stroop_1","internal_consistency"
"283",0,100,3000,3,"trial","median",0.64607,0.50366,0.74819,107,23226,217.065420560748,1,0.904439252336449,"Stroop_1","internal_consistency"
"284",0.8,100,3000,3,"trial","median",0.64713,0.49956,0.75737,107,23226,217.065420560748,1,0.904439252336449,"Stroop_1","internal_consistency"
"285",0.9,100,3000,3,"trial","median",0.65309,0.50464,0.75128,107,23226,217.065420560748,1,0.904439252336449,"Stroop_1","internal_consistency"
"286",0,200,3000,3,"trial","median",0.64833,0.52375,0.75198,107,23207,216.88785046729,1,0.903699376947041,"Stroop_1","internal_consistency"
"287",0.8,200,3000,3,"trial","median",0.64271,0.51698,0.74369,107,23207,216.88785046729,1,0.903699376947041,"Stroop_1","internal_consistency"
"288",0.9,200,3000,3,"trial","median",0.64719,0.54124,0.73919,107,23207,216.88785046729,1,0.903699376947041,"Stroop_1","internal_consistency"
"289",0,0,2000,0,"subject","mean",0.55593,0.40025,0.67714,107,23124,216.11214953271,1,0.900467289719626,"Stroop_2","internal_consistency"
"290",0.8,0,2000,0,"subject","mean",0.55115,0.37658,0.68623,107,23124,216.11214953271,1,0.900467289719626,"Stroop_2","internal_consistency"
"291",0.9,0,2000,0,"subject","mean",0.55355,0.37069,0.69234,107,23124,216.11214953271,1,0.900467289719626,"Stroop_2","internal_consistency"
"292",0,100,2000,0,"subject","mean",0.55176,0.37483,0.67703,107,23090,215.794392523364,1,0.899143302180685,"Stroop_2","internal_consistency"
"293",0.8,100,2000,0,"subject","mean",0.53806,0.36059,0.67892,107,23090,215.794392523364,1,0.899143302180685,"Stroop_2","internal_consistency"
"294",0.9,100,2000,0,"subject","mean",0.54213,0.37012,0.67406,107,23090,215.794392523364,1,0.899143302180685,"Stroop_2","internal_consistency"
"295",0,200,2000,0,"subject","mean",0.5084,0.31923,0.64338,107,23060,215.514018691589,1,0.89797507788162,"Stroop_2","internal_consistency"
"296",0.8,200,2000,0,"subject","mean",0.50342,0.3006,0.64221,107,23060,215.514018691589,1,0.89797507788162,"Stroop_2","internal_consistency"
"297",0.9,200,2000,0,"subject","mean",0.51187,0.31808,0.6628,107,23060,215.514018691589,1,0.89797507788162,"Stroop_2","internal_consistency"
"298",0,0,3000,0,"subject","mean",0.60534,0.45009,0.72064,107,23160,216.448598130841,1,0.901869158878505,"Stroop_2","internal_consistency"
"299",0.8,0,3000,0,"subject","mean",0.60347,0.46844,0.72898,107,23160,216.448598130841,1,0.901869158878505,"Stroop_2","internal_consistency"
"300",0.9,0,3000,0,"subject","mean",0.61048,0.45135,0.72737,107,23160,216.448598130841,1,0.901869158878505,"Stroop_2","internal_consistency"
"301",0,100,3000,0,"subject","mean",0.60333,0.45548,0.72492,107,23126,216.130841121495,1,0.900545171339564,"Stroop_2","internal_consistency"
"302",0.8,100,3000,0,"subject","mean",0.59632,0.46246,0.71664,107,23126,216.130841121495,1,0.900545171339564,"Stroop_2","internal_consistency"
"303",0.9,100,3000,0,"subject","mean",0.59123,0.43862,0.71291,107,23126,216.130841121495,1,0.900545171339564,"Stroop_2","internal_consistency"
"304",0,200,3000,0,"subject","mean",0.5572,0.39024,0.68869,107,23096,215.85046728972,1,0.899376947040498,"Stroop_2","internal_consistency"
"305",0.8,200,3000,0,"subject","mean",0.57115,0.41017,0.69392,107,23096,215.85046728972,1,0.899376947040498,"Stroop_2","internal_consistency"
"306",0.9,200,3000,0,"subject","mean",0.56517,0.39973,0.69585,107,23096,215.85046728972,1,0.899376947040498,"Stroop_2","internal_consistency"
"307",0,0,2000,1,"subject","mean",0.61274,0.48109,0.72346,107,17324,161.906542056075,1,0.674610591900311,"Stroop_2","internal_consistency"
"308",0.8,0,2000,1,"subject","mean",0.61418,0.46828,0.72414,107,17324,161.906542056075,1,0.674610591900311,"Stroop_2","internal_consistency"
"309",0.9,0,2000,1,"subject","mean",0.61147,0.45825,0.72369,107,17324,161.906542056075,1,0.674610591900311,"Stroop_2","internal_consistency"
"310",0,100,2000,1,"subject","mean",0.57916,0.42013,0.70909,107,17291,161.598130841122,1,0.67332554517134,"Stroop_2","internal_consistency"
"311",0.8,100,2000,1,"subject","mean",0.5802,0.40265,0.69822,107,17291,161.598130841122,1,0.67332554517134,"Stroop_2","internal_consistency"
"312",0.9,100,2000,1,"subject","mean",0.58585,0.43243,0.70191,107,17291,161.598130841122,1,0.67332554517134,"Stroop_2","internal_consistency"
"313",0,200,2000,1,"subject","mean",0.56975,0.38734,0.69,107,17265,161.355140186916,1,0.67231308411215,"Stroop_2","internal_consistency"
"314",0.8,200,2000,1,"subject","mean",0.56834,0.38037,0.69997,107,17265,161.355140186916,1,0.67231308411215,"Stroop_2","internal_consistency"
"315",0.9,200,2000,1,"subject","mean",0.56407,0.38874,0.69469,107,17265,161.355140186916,1,0.67231308411215,"Stroop_2","internal_consistency"
"316",0,0,3000,1,"subject","mean",0.58858,0.42245,0.70396,107,17592,164.411214953271,1,0.685046728971963,"Stroop_2","internal_consistency"
"317",0.8,0,3000,1,"subject","mean",0.59198,0.44853,0.7081,107,17592,164.411214953271,1,0.685046728971963,"Stroop_2","internal_consistency"
"318",0.9,0,3000,1,"subject","mean",0.58328,0.42812,0.71321,107,17592,164.411214953271,1,0.685046728971963,"Stroop_2","internal_consistency"
"319",0,100,3000,1,"subject","mean",0.56743,0.41614,0.6913,107,17576,164.261682242991,1,0.684423676012461,"Stroop_2","internal_consistency"
"320",0.8,100,3000,1,"subject","mean",0.57329,0.43311,0.70568,107,17576,164.261682242991,1,0.684423676012461,"Stroop_2","internal_consistency"
"321",0.9,100,3000,1,"subject","mean",0.56993,0.42054,0.68359,107,17576,164.261682242991,1,0.684423676012461,"Stroop_2","internal_consistency"
"322",0,200,3000,1,"subject","mean",0.55623,0.3653,0.68822,107,17559,164.102803738318,1,0.683761682242991,"Stroop_2","internal_consistency"
"323",0.8,200,3000,1,"subject","mean",0.56047,0.37652,0.7025,107,17559,164.102803738318,1,0.683761682242991,"Stroop_2","internal_consistency"
"324",0.9,200,3000,1,"subject","mean",0.55698,0.35841,0.69002,107,17559,164.102803738318,1,0.683761682242991,"Stroop_2","internal_consistency"
"325",0,0,2000,2,"subject","mean",0.58265,0.42676,0.70285,107,22086,206.411214953271,1,0.860046728971963,"Stroop_2","internal_consistency"
"326",0.8,0,2000,2,"subject","mean",0.58787,0.44314,0.71162,107,22086,206.411214953271,1,0.860046728971963,"Stroop_2","internal_consistency"
"327",0.9,0,2000,2,"subject","mean",0.57703,0.42699,0.70203,107,22086,206.411214953271,1,0.860046728971963,"Stroop_2","internal_consistency"
"328",0,100,2000,2,"subject","mean",0.57405,0.41065,0.70063,107,22061,206.177570093458,1,0.859073208722741,"Stroop_2","internal_consistency"
"329",0.8,100,2000,2,"subject","mean",0.58126,0.42288,0.70218,107,22061,206.177570093458,1,0.859073208722741,"Stroop_2","internal_consistency"
"330",0.9,100,2000,2,"subject","mean",0.58582,0.44119,0.7038,107,22061,206.177570093458,1,0.859073208722741,"Stroop_2","internal_consistency"
"331",0,200,2000,2,"subject","mean",0.54882,0.37091,0.68288,107,22033,205.915887850467,1,0.857982866043614,"Stroop_2","internal_consistency"
"332",0.8,200,2000,2,"subject","mean",0.54786,0.37602,0.68085,107,22033,205.915887850467,1,0.857982866043614,"Stroop_2","internal_consistency"
"333",0.9,200,2000,2,"subject","mean",0.54527,0.38306,0.6898,107,22033,205.915887850467,1,0.857982866043614,"Stroop_2","internal_consistency"
"334",0,0,3000,2,"subject","mean",0.58377,0.40499,0.69854,107,22153,207.03738317757,1,0.862655763239875,"Stroop_2","internal_consistency"
"335",0.8,0,3000,2,"subject","mean",0.58593,0.42826,0.71419,107,22153,207.03738317757,1,0.862655763239875,"Stroop_2","internal_consistency"
"336",0.9,0,3000,2,"subject","mean",0.58963,0.44021,0.69985,107,22153,207.03738317757,1,0.862655763239875,"Stroop_2","internal_consistency"
"337",0,100,3000,2,"subject","mean",0.58811,0.43706,0.70602,107,22120,206.728971962617,1,0.861370716510903,"Stroop_2","internal_consistency"
"338",0.8,100,3000,2,"subject","mean",0.59156,0.44267,0.71287,107,22120,206.728971962617,1,0.861370716510903,"Stroop_2","internal_consistency"
"339",0.9,100,3000,2,"subject","mean",0.59251,0.43523,0.71543,107,22120,206.728971962617,1,0.861370716510903,"Stroop_2","internal_consistency"
"340",0,200,3000,2,"subject","mean",0.54783,0.35308,0.69497,107,22092,206.467289719626,1,0.860280373831776,"Stroop_2","internal_consistency"
"341",0.8,200,3000,2,"subject","mean",0.55165,0.38332,0.68715,107,22092,206.467289719626,1,0.860280373831776,"Stroop_2","internal_consistency"
"342",0.9,200,3000,2,"subject","mean",0.55314,0.38411,0.68629,107,22092,206.467289719626,1,0.860280373831776,"Stroop_2","internal_consistency"
"343",0,0,2000,3,"subject","mean",0.57004,0.36807,0.69639,107,22770,212.803738317757,1,0.886682242990654,"Stroop_2","internal_consistency"
"344",0.8,0,2000,3,"subject","mean",0.56426,0.3955,0.69184,107,22770,212.803738317757,1,0.886682242990654,"Stroop_2","internal_consistency"
"345",0.9,0,2000,3,"subject","mean",0.56283,0.39924,0.69768,107,22770,212.803738317757,1,0.886682242990654,"Stroop_2","internal_consistency"
"346",0,100,2000,3,"subject","mean",0.54838,0.35092,0.68704,107,22734,212.467289719626,1,0.885280373831776,"Stroop_2","internal_consistency"
"347",0.8,100,2000,3,"subject","mean",0.55626,0.3915,0.69021,107,22734,212.467289719626,1,0.885280373831776,"Stroop_2","internal_consistency"
"348",0.9,100,2000,3,"subject","mean",0.55327,0.384,0.68353,107,22734,212.467289719626,1,0.885280373831776,"Stroop_2","internal_consistency"
"349",0,200,2000,3,"subject","mean",0.52014,0.32949,0.66988,107,22703,212.177570093458,1,0.884073208722741,"Stroop_2","internal_consistency"
"350",0.8,200,2000,3,"subject","mean",0.52436,0.31818,0.65897,107,22703,212.177570093458,1,0.884073208722741,"Stroop_2","internal_consistency"
"351",0.9,200,2000,3,"subject","mean",0.51408,0.25997,0.67175,107,22703,212.177570093458,1,0.884073208722741,"Stroop_2","internal_consistency"
"352",0,0,3000,3,"subject","mean",0.57638,0.39355,0.69997,107,22809,213.168224299065,1,0.888200934579439,"Stroop_2","internal_consistency"
"353",0.8,0,3000,3,"subject","mean",0.5741,0.3923,0.71355,107,22809,213.168224299065,1,0.888200934579439,"Stroop_2","internal_consistency"
"354",0.9,0,3000,3,"subject","mean",0.57389,0.39258,0.69857,107,22809,213.168224299065,1,0.888200934579439,"Stroop_2","internal_consistency"
"355",0,100,3000,3,"subject","mean",0.57303,0.4183,0.70821,107,22775,212.85046728972,1,0.886876947040498,"Stroop_2","internal_consistency"
"356",0.8,100,3000,3,"subject","mean",0.56359,0.39584,0.70181,107,22775,212.85046728972,1,0.886876947040498,"Stroop_2","internal_consistency"
"357",0.9,100,3000,3,"subject","mean",0.55996,0.38251,0.69645,107,22775,212.85046728972,1,0.886876947040498,"Stroop_2","internal_consistency"
"358",0,200,3000,3,"subject","mean",0.53108,0.3164,0.67818,107,22745,212.570093457944,1,0.885708722741433,"Stroop_2","internal_consistency"
"359",0.8,200,3000,3,"subject","mean",0.52812,0.31914,0.67456,107,22745,212.570093457944,1,0.885708722741433,"Stroop_2","internal_consistency"
"360",0.9,200,3000,3,"subject","mean",0.52578,0.3219,0.68599,107,22745,212.570093457944,1,0.885708722741433,"Stroop_2","internal_consistency"
"361",0,0,2000,0,"trial","mean",0.55688,0.39502,0.69255,107,23124,216.11214953271,1,0.900467289719626,"Stroop_2","internal_consistency"
"362",0.8,0,2000,0,"trial","mean",0.5514,0.3717,0.69018,107,23124,216.11214953271,1,0.900467289719626,"Stroop_2","internal_consistency"
"363",0.9,0,2000,0,"trial","mean",0.55893,0.40369,0.686,107,23124,216.11214953271,1,0.900467289719626,"Stroop_2","internal_consistency"
"364",0,100,2000,0,"trial","mean",0.54535,0.38301,0.66397,107,23090,215.794392523364,1,0.899143302180685,"Stroop_2","internal_consistency"
"365",0.8,100,2000,0,"trial","mean",0.54251,0.38048,0.68344,107,23090,215.794392523364,1,0.899143302180685,"Stroop_2","internal_consistency"
"366",0.9,100,2000,0,"trial","mean",0.54089,0.3553,0.68257,107,23090,215.794392523364,1,0.899143302180685,"Stroop_2","internal_consistency"
"367",0,200,2000,0,"trial","mean",0.50312,0.31178,0.64556,107,23060,215.514018691589,1,0.89797507788162,"Stroop_2","internal_consistency"
"368",0.8,200,2000,0,"trial","mean",0.509,0.3145,0.65521,107,23060,215.514018691589,1,0.89797507788162,"Stroop_2","internal_consistency"
"369",0.9,200,2000,0,"trial","mean",0.50543,0.32024,0.65273,107,23060,215.514018691589,1,0.89797507788162,"Stroop_2","internal_consistency"
"370",0,0,3000,0,"trial","mean",0.60303,0.45822,0.71949,107,23160,216.448598130841,1,0.901869158878505,"Stroop_2","internal_consistency"
"371",0.8,0,3000,0,"trial","mean",0.60995,0.47022,0.71795,107,23160,216.448598130841,1,0.901869158878505,"Stroop_2","internal_consistency"
"372",0.9,0,3000,0,"trial","mean",0.60957,0.47585,0.7174,107,23160,216.448598130841,1,0.901869158878505,"Stroop_2","internal_consistency"
"373",0,100,3000,0,"trial","mean",0.59699,0.45692,0.71565,107,23126,216.130841121495,1,0.900545171339564,"Stroop_2","internal_consistency"
"374",0.8,100,3000,0,"trial","mean",0.59422,0.44124,0.71543,107,23126,216.130841121495,1,0.900545171339564,"Stroop_2","internal_consistency"
"375",0.9,100,3000,0,"trial","mean",0.59489,0.46904,0.71822,107,23126,216.130841121495,1,0.900545171339564,"Stroop_2","internal_consistency"
"376",0,200,3000,0,"trial","mean",0.56927,0.41338,0.68518,107,23096,215.85046728972,1,0.899376947040498,"Stroop_2","internal_consistency"
"377",0.8,200,3000,0,"trial","mean",0.56185,0.38813,0.70507,107,23096,215.85046728972,1,0.899376947040498,"Stroop_2","internal_consistency"
"378",0.9,200,3000,0,"trial","mean",0.56177,0.39301,0.6942,107,23096,215.85046728972,1,0.899376947040498,"Stroop_2","internal_consistency"
"379",0,0,2000,1,"trial","mean",0.87459,0.83218,0.9085,107,17237,161.093457943925,1,0.671222741433022,"Stroop_2","internal_consistency"
"380",0.8,0,2000,1,"trial","mean",0.87339,0.83012,0.9086,107,17237,161.093457943925,1,0.671222741433022,"Stroop_2","internal_consistency"
"381",0.9,0,2000,1,"trial","mean",0.87317,0.82315,0.9112,107,17237,161.093457943925,1,0.671222741433022,"Stroop_2","internal_consistency"
"382",0,100,2000,1,"trial","mean",0.86617,0.81406,0.90425,107,17210,160.841121495327,1,0.670171339563863,"Stroop_2","internal_consistency"
"383",0.8,100,2000,1,"trial","mean",0.867,0.81671,0.90237,107,17210,160.841121495327,1,0.670171339563863,"Stroop_2","internal_consistency"
"384",0.9,100,2000,1,"trial","mean",0.86618,0.81488,0.90326,107,17210,160.841121495327,1,0.670171339563863,"Stroop_2","internal_consistency"
"385",0,200,2000,1,"trial","mean",0.84871,0.78269,0.89452,107,17184,160.598130841122,1,0.669158878504673,"Stroop_2","internal_consistency"
"386",0.8,200,2000,1,"trial","mean",0.8487,0.78822,0.89284,107,17184,160.598130841122,1,0.669158878504673,"Stroop_2","internal_consistency"
"387",0.9,200,2000,1,"trial","mean",0.84981,0.79371,0.89461,107,17184,160.598130841122,1,0.669158878504673,"Stroop_2","internal_consistency"
"388",0,0,3000,1,"trial","mean",0.87383,0.82863,0.90849,107,17454,163.121495327103,1,0.679672897196262,"Stroop_2","internal_consistency"
"389",0.8,0,3000,1,"trial","mean",0.87341,0.83159,0.90826,107,17454,163.121495327103,1,0.679672897196262,"Stroop_2","internal_consistency"
"390",0.9,0,3000,1,"trial","mean",0.87356,0.82781,0.90961,107,17454,163.121495327103,1,0.679672897196262,"Stroop_2","internal_consistency"
"391",0,100,3000,1,"trial","mean",0.86568,0.82014,0.90446,107,17436,162.953271028037,1,0.678971962616822,"Stroop_2","internal_consistency"
"392",0.8,100,3000,1,"trial","mean",0.86606,0.81293,0.90662,107,17436,162.953271028037,1,0.678971962616822,"Stroop_2","internal_consistency"
"393",0.9,100,3000,1,"trial","mean",0.86841,0.81543,0.90923,107,17436,162.953271028037,1,0.678971962616822,"Stroop_2","internal_consistency"
"394",0,200,3000,1,"trial","mean",0.85027,0.7864,0.89815,107,17411,162.719626168224,1,0.677998442367601,"Stroop_2","internal_consistency"
"395",0.8,200,3000,1,"trial","mean",0.84958,0.78829,0.89965,107,17411,162.719626168224,1,0.677998442367601,"Stroop_2","internal_consistency"
"396",0.9,200,3000,1,"trial","mean",0.85242,0.79658,0.89485,107,17411,162.719626168224,1,0.677998442367601,"Stroop_2","internal_consistency"
"397",0,0,2000,2,"trial","mean",0.70028,0.58746,0.78675,107,22126,206.785046728972,1,0.861604361370716,"Stroop_2","internal_consistency"
"398",0.8,0,2000,2,"trial","mean",0.69944,0.58086,0.77932,107,22126,206.785046728972,1,0.861604361370716,"Stroop_2","internal_consistency"
"399",0.9,0,2000,2,"trial","mean",0.70083,0.5949,0.78938,107,22126,206.785046728972,1,0.861604361370716,"Stroop_2","internal_consistency"
"400",0,100,2000,2,"trial","mean",0.7024,0.59933,0.78265,107,22103,206.570093457944,1,0.860708722741433,"Stroop_2","internal_consistency"
"401",0.8,100,2000,2,"trial","mean",0.6971,0.58142,0.78289,107,22103,206.570093457944,1,0.860708722741433,"Stroop_2","internal_consistency"
"402",0.9,100,2000,2,"trial","mean",0.70074,0.57627,0.79127,107,22103,206.570093457944,1,0.860708722741433,"Stroop_2","internal_consistency"
"403",0,200,2000,2,"trial","mean",0.67638,0.55133,0.76937,107,22077,206.327102803738,1,0.859696261682243,"Stroop_2","internal_consistency"
"404",0.8,200,2000,2,"trial","mean",0.68033,0.54224,0.77458,107,22077,206.327102803738,1,0.859696261682243,"Stroop_2","internal_consistency"
"405",0.9,200,2000,2,"trial","mean",0.67725,0.53151,0.77662,107,22077,206.327102803738,1,0.859696261682243,"Stroop_2","internal_consistency"
"406",0,0,3000,2,"trial","mean",0.72645,0.61725,0.80497,107,22180,207.289719626168,1,0.863707165109034,"Stroop_2","internal_consistency"
"407",0.8,0,3000,2,"trial","mean",0.72373,0.62171,0.80404,107,22180,207.289719626168,1,0.863707165109034,"Stroop_2","internal_consistency"
"408",0.9,0,3000,2,"trial","mean",0.72709,0.62108,0.80328,107,22180,207.289719626168,1,0.863707165109034,"Stroop_2","internal_consistency"
"409",0,100,3000,2,"trial","mean",0.72893,0.61834,0.80601,107,22151,207.018691588785,1,0.862577881619938,"Stroop_2","internal_consistency"
"410",0.8,100,3000,2,"trial","mean",0.73232,0.63924,0.80657,107,22151,207.018691588785,1,0.862577881619938,"Stroop_2","internal_consistency"
"411",0.9,100,3000,2,"trial","mean",0.72909,0.60607,0.80781,107,22151,207.018691588785,1,0.862577881619938,"Stroop_2","internal_consistency"
"412",0,200,3000,2,"trial","mean",0.70506,0.60038,0.7827,107,22124,206.766355140187,1,0.861526479750779,"Stroop_2","internal_consistency"
"413",0.8,200,3000,2,"trial","mean",0.70817,0.59272,0.80149,107,22124,206.766355140187,1,0.861526479750779,"Stroop_2","internal_consistency"
"414",0.9,200,3000,2,"trial","mean",0.7083,0.59492,0.7938,107,22124,206.766355140187,1,0.861526479750779,"Stroop_2","internal_consistency"
"415",0,0,2000,3,"trial","mean",0.66529,0.54516,0.76796,107,22770,212.803738317757,1,0.886682242990654,"Stroop_2","internal_consistency"
"416",0.8,0,2000,3,"trial","mean",0.66112,0.50963,0.75719,107,22770,212.803738317757,1,0.886682242990654,"Stroop_2","internal_consistency"
"417",0.9,0,2000,3,"trial","mean",0.66758,0.54014,0.77122,107,22770,212.803738317757,1,0.886682242990654,"Stroop_2","internal_consistency"
"418",0,100,2000,3,"trial","mean",0.66008,0.53997,0.75938,107,22734,212.467289719626,1,0.885280373831776,"Stroop_2","internal_consistency"
"419",0.8,100,2000,3,"trial","mean",0.65634,0.52222,0.75613,107,22734,212.467289719626,1,0.885280373831776,"Stroop_2","internal_consistency"
"420",0.9,100,2000,3,"trial","mean",0.66203,0.51331,0.76148,107,22734,212.467289719626,1,0.885280373831776,"Stroop_2","internal_consistency"
"421",0,200,2000,3,"trial","mean",0.63898,0.4754,0.74842,107,22703,212.177570093458,1,0.884073208722741,"Stroop_2","internal_consistency"
"422",0.8,200,2000,3,"trial","mean",0.63582,0.45265,0.74428,107,22703,212.177570093458,1,0.884073208722741,"Stroop_2","internal_consistency"
"423",0.9,200,2000,3,"trial","mean",0.6383,0.48599,0.74352,107,22703,212.177570093458,1,0.884073208722741,"Stroop_2","internal_consistency"
"424",0,0,3000,3,"trial","mean",0.69147,0.55946,0.77918,107,22798,213.065420560748,1,0.887772585669782,"Stroop_2","internal_consistency"
"425",0.8,0,3000,3,"trial","mean",0.69387,0.58908,0.78118,107,22798,213.065420560748,1,0.887772585669782,"Stroop_2","internal_consistency"
"426",0.9,0,3000,3,"trial","mean",0.69151,0.57386,0.79077,107,22798,213.065420560748,1,0.887772585669782,"Stroop_2","internal_consistency"
"427",0,100,3000,3,"trial","mean",0.68625,0.55437,0.77897,107,22762,212.728971962617,1,0.886370716510903,"Stroop_2","internal_consistency"
"428",0.8,100,3000,3,"trial","mean",0.68689,0.5614,0.77903,107,22762,212.728971962617,1,0.886370716510903,"Stroop_2","internal_consistency"
"429",0.9,100,3000,3,"trial","mean",0.6876,0.55559,0.78487,107,22762,212.728971962617,1,0.886370716510903,"Stroop_2","internal_consistency"
"430",0,200,3000,3,"trial","mean",0.66534,0.52988,0.77135,107,22733,212.457943925234,1,0.885241433021807,"Stroop_2","internal_consistency"
"431",0.8,200,3000,3,"trial","mean",0.67455,0.55478,0.77306,107,22733,212.457943925234,1,0.885241433021807,"Stroop_2","internal_consistency"
"432",0.9,200,3000,3,"trial","mean",0.66441,0.52431,0.7715,107,22733,212.457943925234,1,0.885241433021807,"Stroop_2","internal_consistency"
"433",0,0,2000,0,"subject","median",0.54986,0.39087,0.68521,107,23124,216.11214953271,1,0.900467289719626,"Stroop_2","internal_consistency"
"434",0.8,0,2000,0,"subject","median",0.54639,0.39697,0.67173,107,23124,216.11214953271,1,0.900467289719626,"Stroop_2","internal_consistency"
"435",0.9,0,2000,0,"subject","median",0.54668,0.38027,0.67675,107,23124,216.11214953271,1,0.900467289719626,"Stroop_2","internal_consistency"
"436",0,100,2000,0,"subject","median",0.52516,0.36827,0.65539,107,23090,215.794392523364,1,0.899143302180685,"Stroop_2","internal_consistency"
"437",0.8,100,2000,0,"subject","median",0.52481,0.3458,0.66696,107,23090,215.794392523364,1,0.899143302180685,"Stroop_2","internal_consistency"
"438",0.9,100,2000,0,"subject","median",0.52684,0.35231,0.67022,107,23090,215.794392523364,1,0.899143302180685,"Stroop_2","internal_consistency"
"439",0,200,2000,0,"subject","median",0.48454,0.30336,0.63618,107,23060,215.514018691589,1,0.89797507788162,"Stroop_2","internal_consistency"
"440",0.8,200,2000,0,"subject","median",0.48482,0.29707,0.62914,107,23060,215.514018691589,1,0.89797507788162,"Stroop_2","internal_consistency"
"441",0.9,200,2000,0,"subject","median",0.47624,0.28098,0.63666,107,23060,215.514018691589,1,0.89797507788162,"Stroop_2","internal_consistency"
"442",0,0,3000,0,"subject","median",0.56202,0.39517,0.68765,107,23160,216.448598130841,1,0.901869158878505,"Stroop_2","internal_consistency"
"443",0.8,0,3000,0,"subject","median",0.56257,0.42382,0.69659,107,23160,216.448598130841,1,0.901869158878505,"Stroop_2","internal_consistency"
"444",0.9,0,3000,0,"subject","median",0.56413,0.41673,0.69106,107,23160,216.448598130841,1,0.901869158878505,"Stroop_2","internal_consistency"
"445",0,100,3000,0,"subject","median",0.53995,0.38298,0.67729,107,23126,216.130841121495,1,0.900545171339564,"Stroop_2","internal_consistency"
"446",0.8,100,3000,0,"subject","median",0.54298,0.38377,0.66291,107,23126,216.130841121495,1,0.900545171339564,"Stroop_2","internal_consistency"
"447",0.9,100,3000,0,"subject","median",0.53823,0.35624,0.66574,107,23126,216.130841121495,1,0.900545171339564,"Stroop_2","internal_consistency"
"448",0,200,3000,0,"subject","median",0.50928,0.33551,0.64452,107,23096,215.85046728972,1,0.899376947040498,"Stroop_2","internal_consistency"
"449",0.8,200,3000,0,"subject","median",0.49644,0.31805,0.6416,107,23096,215.85046728972,1,0.899376947040498,"Stroop_2","internal_consistency"
"450",0.9,200,3000,0,"subject","median",0.50304,0.33029,0.64733,107,23096,215.85046728972,1,0.899376947040498,"Stroop_2","internal_consistency"
"451",0,0,2000,1,"subject","median",0.51139,0.32606,0.66246,107,17324,161.906542056075,1,0.674610591900311,"Stroop_2","internal_consistency"
"452",0.8,0,2000,1,"subject","median",0.50848,0.34656,0.6415,107,17324,161.906542056075,1,0.674610591900311,"Stroop_2","internal_consistency"
"453",0.9,0,2000,1,"subject","median",0.51035,0.32341,0.64484,107,17324,161.906542056075,1,0.674610591900311,"Stroop_2","internal_consistency"
"454",0,100,2000,1,"subject","median",0.46219,0.2749,0.62262,107,17291,161.598130841122,1,0.67332554517134,"Stroop_2","internal_consistency"
"455",0.8,100,2000,1,"subject","median",0.47424,0.30459,0.6355,107,17291,161.598130841122,1,0.67332554517134,"Stroop_2","internal_consistency"
"456",0.9,100,2000,1,"subject","median",0.46339,0.25678,0.61819,107,17291,161.598130841122,1,0.67332554517134,"Stroop_2","internal_consistency"
"457",0,200,2000,1,"subject","median",0.44567,0.25252,0.60762,107,17265,161.355140186916,1,0.67231308411215,"Stroop_2","internal_consistency"
"458",0.8,200,2000,1,"subject","median",0.44573,0.25135,0.6051,107,17265,161.355140186916,1,0.67231308411215,"Stroop_2","internal_consistency"
"459",0.9,200,2000,1,"subject","median",0.43464,0.20488,0.6237,107,17265,161.355140186916,1,0.67231308411215,"Stroop_2","internal_consistency"
"460",0,0,3000,1,"subject","median",0.50968,0.32722,0.64914,107,17592,164.411214953271,1,0.685046728971963,"Stroop_2","internal_consistency"
"461",0.8,0,3000,1,"subject","median",0.5071,0.3335,0.64426,107,17592,164.411214953271,1,0.685046728971963,"Stroop_2","internal_consistency"
"462",0.9,0,3000,1,"subject","median",0.50756,0.34284,0.6492,107,17592,164.411214953271,1,0.685046728971963,"Stroop_2","internal_consistency"
"463",0,100,3000,1,"subject","median",0.46445,0.2658,0.61273,107,17576,164.261682242991,1,0.684423676012461,"Stroop_2","internal_consistency"
"464",0.8,100,3000,1,"subject","median",0.46977,0.27599,0.62409,107,17576,164.261682242991,1,0.684423676012461,"Stroop_2","internal_consistency"
"465",0.9,100,3000,1,"subject","median",0.46503,0.2738,0.62269,107,17576,164.261682242991,1,0.684423676012461,"Stroop_2","internal_consistency"
"466",0,200,3000,1,"subject","median",0.44889,0.25433,0.60462,107,17559,164.102803738318,1,0.683761682242991,"Stroop_2","internal_consistency"
"467",0.8,200,3000,1,"subject","median",0.43938,0.23345,0.60684,107,17559,164.102803738318,1,0.683761682242991,"Stroop_2","internal_consistency"
"468",0.9,200,3000,1,"subject","median",0.44129,0.23831,0.60125,107,17559,164.102803738318,1,0.683761682242991,"Stroop_2","internal_consistency"
"469",0,0,2000,2,"subject","median",0.53947,0.38046,0.66065,107,22086,206.411214953271,1,0.860046728971963,"Stroop_2","internal_consistency"
"470",0.8,0,2000,2,"subject","median",0.54233,0.38859,0.67536,107,22086,206.411214953271,1,0.860046728971963,"Stroop_2","internal_consistency"
"471",0.9,0,2000,2,"subject","median",0.54055,0.39594,0.66779,107,22086,206.411214953271,1,0.860046728971963,"Stroop_2","internal_consistency"
"472",0,100,2000,2,"subject","median",0.52292,0.35574,0.65241,107,22061,206.177570093458,1,0.859073208722741,"Stroop_2","internal_consistency"
"473",0.8,100,2000,2,"subject","median",0.52606,0.3768,0.66109,107,22061,206.177570093458,1,0.859073208722741,"Stroop_2","internal_consistency"
"474",0.9,100,2000,2,"subject","median",0.5213,0.36082,0.65582,107,22061,206.177570093458,1,0.859073208722741,"Stroop_2","internal_consistency"
"475",0,200,2000,2,"subject","median",0.48579,0.30931,0.63201,107,22033,205.915887850467,1,0.857982866043614,"Stroop_2","internal_consistency"
"476",0.8,200,2000,2,"subject","median",0.48615,0.31505,0.61693,107,22033,205.915887850467,1,0.857982866043614,"Stroop_2","internal_consistency"
"477",0.9,200,2000,2,"subject","median",0.48443,0.2955,0.62461,107,22033,205.915887850467,1,0.857982866043614,"Stroop_2","internal_consistency"
"478",0,0,3000,2,"subject","median",0.54562,0.37633,0.68184,107,22153,207.03738317757,1,0.862655763239875,"Stroop_2","internal_consistency"
"479",0.8,0,3000,2,"subject","median",0.54562,0.39973,0.67856,107,22153,207.03738317757,1,0.862655763239875,"Stroop_2","internal_consistency"
"480",0.9,0,3000,2,"subject","median",0.54647,0.39634,0.6729,107,22153,207.03738317757,1,0.862655763239875,"Stroop_2","internal_consistency"
"481",0,100,3000,2,"subject","median",0.53037,0.38176,0.68178,107,22120,206.728971962617,1,0.861370716510903,"Stroop_2","internal_consistency"
"482",0.8,100,3000,2,"subject","median",0.53808,0.37801,0.66595,107,22120,206.728971962617,1,0.861370716510903,"Stroop_2","internal_consistency"
"483",0.9,100,3000,2,"subject","median",0.53159,0.3769,0.66642,107,22120,206.728971962617,1,0.861370716510903,"Stroop_2","internal_consistency"
"484",0,200,3000,2,"subject","median",0.49918,0.3359,0.64249,107,22092,206.467289719626,1,0.860280373831776,"Stroop_2","internal_consistency"
"485",0.8,200,3000,2,"subject","median",0.49646,0.34286,0.6287,107,22092,206.467289719626,1,0.860280373831776,"Stroop_2","internal_consistency"
"486",0.9,200,3000,2,"subject","median",0.49557,0.32019,0.64294,107,22092,206.467289719626,1,0.860280373831776,"Stroop_2","internal_consistency"
"487",0,0,2000,3,"subject","median",0.54735,0.39353,0.67734,107,22770,212.803738317757,1,0.886682242990654,"Stroop_2","internal_consistency"
"488",0.8,0,2000,3,"subject","median",0.53917,0.39521,0.67511,107,22770,212.803738317757,1,0.886682242990654,"Stroop_2","internal_consistency"
"489",0.9,0,2000,3,"subject","median",0.54425,0.39659,0.67687,107,22770,212.803738317757,1,0.886682242990654,"Stroop_2","internal_consistency"
"490",0,100,2000,3,"subject","median",0.51507,0.36512,0.65071,107,22734,212.467289719626,1,0.885280373831776,"Stroop_2","internal_consistency"
"491",0.8,100,2000,3,"subject","median",0.52095,0.35103,0.65477,107,22734,212.467289719626,1,0.885280373831776,"Stroop_2","internal_consistency"
"492",0.9,100,2000,3,"subject","median",0.51614,0.34136,0.65221,107,22734,212.467289719626,1,0.885280373831776,"Stroop_2","internal_consistency"
"493",0,200,2000,3,"subject","median",0.47334,0.277,0.62036,107,22703,212.177570093458,1,0.884073208722741,"Stroop_2","internal_consistency"
"494",0.8,200,2000,3,"subject","median",0.4738,0.26238,0.62986,107,22703,212.177570093458,1,0.884073208722741,"Stroop_2","internal_consistency"
"495",0.9,200,2000,3,"subject","median",0.48247,0.30529,0.63198,107,22703,212.177570093458,1,0.884073208722741,"Stroop_2","internal_consistency"
"496",0,0,3000,3,"subject","median",0.54602,0.37527,0.67914,107,22809,213.168224299065,1,0.888200934579439,"Stroop_2","internal_consistency"
"497",0.8,0,3000,3,"subject","median",0.54671,0.38534,0.67318,107,22809,213.168224299065,1,0.888200934579439,"Stroop_2","internal_consistency"
"498",0.9,0,3000,3,"subject","median",0.54401,0.37843,0.67423,107,22809,213.168224299065,1,0.888200934579439,"Stroop_2","internal_consistency"
"499",0,100,3000,3,"subject","median",0.52064,0.34723,0.65548,107,22775,212.85046728972,1,0.886876947040498,"Stroop_2","internal_consistency"
"500",0.8,100,3000,3,"subject","median",0.52783,0.36375,0.66632,107,22775,212.85046728972,1,0.886876947040498,"Stroop_2","internal_consistency"
"501",0.9,100,3000,3,"subject","median",0.51979,0.33951,0.65395,107,22775,212.85046728972,1,0.886876947040498,"Stroop_2","internal_consistency"
"502",0,200,3000,3,"subject","median",0.48459,0.2867,0.63444,107,22745,212.570093457944,1,0.885708722741433,"Stroop_2","internal_consistency"
"503",0.8,200,3000,3,"subject","median",0.4884,0.29769,0.62279,107,22745,212.570093457944,1,0.885708722741433,"Stroop_2","internal_consistency"
"504",0.9,200,3000,3,"subject","median",0.49121,0.30072,0.64594,107,22745,212.570093457944,1,0.885708722741433,"Stroop_2","internal_consistency"
"505",0,0,2000,0,"trial","median",0.55205,0.37664,0.67686,107,23124,216.11214953271,1,0.900467289719626,"Stroop_2","internal_consistency"
"506",0.8,0,2000,0,"trial","median",0.54595,0.37042,0.68197,107,23124,216.11214953271,1,0.900467289719626,"Stroop_2","internal_consistency"
"507",0.9,0,2000,0,"trial","median",0.54302,0.39015,0.67081,107,23124,216.11214953271,1,0.900467289719626,"Stroop_2","internal_consistency"
"508",0,100,2000,0,"trial","median",0.52366,0.3632,0.67106,107,23090,215.794392523364,1,0.899143302180685,"Stroop_2","internal_consistency"
"509",0.8,100,2000,0,"trial","median",0.52633,0.36736,0.66418,107,23090,215.794392523364,1,0.899143302180685,"Stroop_2","internal_consistency"
"510",0.9,100,2000,0,"trial","median",0.52787,0.36941,0.6647,107,23090,215.794392523364,1,0.899143302180685,"Stroop_2","internal_consistency"
"511",0,200,2000,0,"trial","median",0.48714,0.30443,0.63894,107,23060,215.514018691589,1,0.89797507788162,"Stroop_2","internal_consistency"
"512",0.8,200,2000,0,"trial","median",0.48594,0.29341,0.63357,107,23060,215.514018691589,1,0.89797507788162,"Stroop_2","internal_consistency"
"513",0.9,200,2000,0,"trial","median",0.48803,0.32133,0.62909,107,23060,215.514018691589,1,0.89797507788162,"Stroop_2","internal_consistency"
"514",0,0,3000,0,"trial","median",0.5585,0.40018,0.68245,107,23160,216.448598130841,1,0.901869158878505,"Stroop_2","internal_consistency"
"515",0.8,0,3000,0,"trial","median",0.56318,0.41789,0.6827,107,23160,216.448598130841,1,0.901869158878505,"Stroop_2","internal_consistency"
"516",0.9,0,3000,0,"trial","median",0.5653,0.41116,0.69351,107,23160,216.448598130841,1,0.901869158878505,"Stroop_2","internal_consistency"
"517",0,100,3000,0,"trial","median",0.54234,0.36269,0.68237,107,23126,216.130841121495,1,0.900545171339564,"Stroop_2","internal_consistency"
"518",0.8,100,3000,0,"trial","median",0.54202,0.38517,0.68049,107,23126,216.130841121495,1,0.900545171339564,"Stroop_2","internal_consistency"
"519",0.9,100,3000,0,"trial","median",0.54237,0.36298,0.67252,107,23126,216.130841121495,1,0.900545171339564,"Stroop_2","internal_consistency"
"520",0,200,3000,0,"trial","median",0.5043,0.32049,0.65142,107,23096,215.85046728972,1,0.899376947040498,"Stroop_2","internal_consistency"
"521",0.8,200,3000,0,"trial","median",0.505,0.31762,0.65291,107,23096,215.85046728972,1,0.899376947040498,"Stroop_2","internal_consistency"
"522",0.9,200,3000,0,"trial","median",0.50005,0.31667,0.67067,107,23096,215.85046728972,1,0.899376947040498,"Stroop_2","internal_consistency"
"523",0,0,2000,1,"trial","median",0.73936,0.64532,0.81311,107,17237,161.093457943925,1,0.671222741433022,"Stroop_2","internal_consistency"
"524",0.8,0,2000,1,"trial","median",0.73485,0.64168,0.80745,107,17237,161.093457943925,1,0.671222741433022,"Stroop_2","internal_consistency"
"525",0.9,0,2000,1,"trial","median",0.73545,0.64687,0.81244,107,17237,161.093457943925,1,0.671222741433022,"Stroop_2","internal_consistency"
"526",0,100,2000,1,"trial","median",0.71601,0.62679,0.79257,107,17210,160.841121495327,1,0.670171339563863,"Stroop_2","internal_consistency"
"527",0.8,100,2000,1,"trial","median",0.71717,0.61971,0.79909,107,17210,160.841121495327,1,0.670171339563863,"Stroop_2","internal_consistency"
"528",0.9,100,2000,1,"trial","median",0.7144,0.61959,0.7876,107,17210,160.841121495327,1,0.670171339563863,"Stroop_2","internal_consistency"
"529",0,200,2000,1,"trial","median",0.6896,0.58413,0.7827,107,17184,160.598130841122,1,0.669158878504673,"Stroop_2","internal_consistency"
"530",0.8,200,2000,1,"trial","median",0.69122,0.59114,0.78523,107,17184,160.598130841122,1,0.669158878504673,"Stroop_2","internal_consistency"
"531",0.9,200,2000,1,"trial","median",0.69117,0.58885,0.78316,107,17184,160.598130841122,1,0.669158878504673,"Stroop_2","internal_consistency"
"532",0,0,3000,1,"trial","median",0.73485,0.64705,0.80306,107,17454,163.121495327103,1,0.679672897196262,"Stroop_2","internal_consistency"
"533",0.8,0,3000,1,"trial","median",0.73688,0.63978,0.81359,107,17454,163.121495327103,1,0.679672897196262,"Stroop_2","internal_consistency"
"534",0.9,0,3000,1,"trial","median",0.73109,0.6391,0.80624,107,17454,163.121495327103,1,0.679672897196262,"Stroop_2","internal_consistency"
"535",0,100,3000,1,"trial","median",0.71916,0.62807,0.79262,107,17436,162.953271028037,1,0.678971962616822,"Stroop_2","internal_consistency"
"536",0.8,100,3000,1,"trial","median",0.71383,0.62859,0.79532,107,17436,162.953271028037,1,0.678971962616822,"Stroop_2","internal_consistency"
"537",0.9,100,3000,1,"trial","median",0.72023,0.62938,0.80333,107,17436,162.953271028037,1,0.678971962616822,"Stroop_2","internal_consistency"
"538",0,200,3000,1,"trial","median",0.68997,0.59053,0.77464,107,17411,162.719626168224,1,0.677998442367601,"Stroop_2","internal_consistency"
"539",0.8,200,3000,1,"trial","median",0.69208,0.5873,0.77387,107,17411,162.719626168224,1,0.677998442367601,"Stroop_2","internal_consistency"
"540",0.9,200,3000,1,"trial","median",0.69273,0.58705,0.7807,107,17411,162.719626168224,1,0.677998442367601,"Stroop_2","internal_consistency"
"541",0,0,2000,2,"trial","median",0.57302,0.42304,0.69351,107,22126,206.785046728972,1,0.861604361370716,"Stroop_2","internal_consistency"
"542",0.8,0,2000,2,"trial","median",0.57789,0.44003,0.69038,107,22126,206.785046728972,1,0.861604361370716,"Stroop_2","internal_consistency"
"543",0.9,0,2000,2,"trial","median",0.57498,0.43558,0.69989,107,22126,206.785046728972,1,0.861604361370716,"Stroop_2","internal_consistency"
"544",0,100,2000,2,"trial","median",0.56356,0.43284,0.68066,107,22103,206.570093457944,1,0.860708722741433,"Stroop_2","internal_consistency"
"545",0.8,100,2000,2,"trial","median",0.56339,0.42032,0.67706,107,22103,206.570093457944,1,0.860708722741433,"Stroop_2","internal_consistency"
"546",0.9,100,2000,2,"trial","median",0.56375,0.40837,0.68237,107,22103,206.570093457944,1,0.860708722741433,"Stroop_2","internal_consistency"
"547",0,200,2000,2,"trial","median",0.52541,0.35962,0.65285,107,22077,206.327102803738,1,0.859696261682243,"Stroop_2","internal_consistency"
"548",0.8,200,2000,2,"trial","median",0.52799,0.36571,0.66188,107,22077,206.327102803738,1,0.859696261682243,"Stroop_2","internal_consistency"
"549",0.9,200,2000,2,"trial","median",0.52582,0.3532,0.65499,107,22077,206.327102803738,1,0.859696261682243,"Stroop_2","internal_consistency"
"550",0,0,3000,2,"trial","median",0.58925,0.43957,0.70031,107,22180,207.289719626168,1,0.863707165109034,"Stroop_2","internal_consistency"
"551",0.8,0,3000,2,"trial","median",0.59063,0.44629,0.70177,107,22180,207.289719626168,1,0.863707165109034,"Stroop_2","internal_consistency"
"552",0.9,0,3000,2,"trial","median",0.58898,0.45096,0.70745,107,22180,207.289719626168,1,0.863707165109034,"Stroop_2","internal_consistency"
"553",0,100,3000,2,"trial","median",0.57398,0.44731,0.69943,107,22151,207.018691588785,1,0.862577881619938,"Stroop_2","internal_consistency"
"554",0.8,100,3000,2,"trial","median",0.57579,0.4428,0.70054,107,22151,207.018691588785,1,0.862577881619938,"Stroop_2","internal_consistency"
"555",0.9,100,3000,2,"trial","median",0.57187,0.40817,0.69205,107,22151,207.018691588785,1,0.862577881619938,"Stroop_2","internal_consistency"
"556",0,200,3000,2,"trial","median",0.53562,0.37392,0.66332,107,22124,206.766355140187,1,0.861526479750779,"Stroop_2","internal_consistency"
"557",0.8,200,3000,2,"trial","median",0.54345,0.38448,0.66636,107,22124,206.766355140187,1,0.861526479750779,"Stroop_2","internal_consistency"
"558",0.9,200,3000,2,"trial","median",0.53951,0.37439,0.6732,107,22124,206.766355140187,1,0.861526479750779,"Stroop_2","internal_consistency"
"559",0,0,2000,3,"trial","median",0.54874,0.39717,0.68736,107,22770,212.803738317757,1,0.886682242990654,"Stroop_2","internal_consistency"
"560",0.8,0,2000,3,"trial","median",0.55327,0.42266,0.68225,107,22770,212.803738317757,1,0.886682242990654,"Stroop_2","internal_consistency"
"561",0.9,0,2000,3,"trial","median",0.54928,0.39437,0.67056,107,22770,212.803738317757,1,0.886682242990654,"Stroop_2","internal_consistency"
"562",0,100,2000,3,"trial","median",0.53149,0.36104,0.66926,107,22734,212.467289719626,1,0.885280373831776,"Stroop_2","internal_consistency"
"563",0.8,100,2000,3,"trial","median",0.53317,0.3637,0.66769,107,22734,212.467289719626,1,0.885280373831776,"Stroop_2","internal_consistency"
"564",0.9,100,2000,3,"trial","median",0.53154,0.37956,0.66805,107,22734,212.467289719626,1,0.885280373831776,"Stroop_2","internal_consistency"
"565",0,200,2000,3,"trial","median",0.50066,0.30172,0.65481,107,22703,212.177570093458,1,0.884073208722741,"Stroop_2","internal_consistency"
"566",0.8,200,2000,3,"trial","median",0.49907,0.31037,0.64689,107,22703,212.177570093458,1,0.884073208722741,"Stroop_2","internal_consistency"
"567",0.9,200,2000,3,"trial","median",0.49122,0.28485,0.64297,107,22703,212.177570093458,1,0.884073208722741,"Stroop_2","internal_consistency"
"568",0,0,3000,3,"trial","median",0.56219,0.39842,0.68573,107,22798,213.065420560748,1,0.887772585669782,"Stroop_2","internal_consistency"
"569",0.8,0,3000,3,"trial","median",0.56923,0.4152,0.68929,107,22798,213.065420560748,1,0.887772585669782,"Stroop_2","internal_consistency"
"570",0.9,0,3000,3,"trial","median",0.56357,0.41044,0.69344,107,22798,213.065420560748,1,0.887772585669782,"Stroop_2","internal_consistency"
"571",0,100,3000,3,"trial","median",0.54437,0.38215,0.67447,107,22762,212.728971962617,1,0.886370716510903,"Stroop_2","internal_consistency"
"572",0.8,100,3000,3,"trial","median",0.54752,0.38512,0.67236,107,22762,212.728971962617,1,0.886370716510903,"Stroop_2","internal_consistency"
"573",0.9,100,3000,3,"trial","median",0.5451,0.37696,0.67563,107,22762,212.728971962617,1,0.886370716510903,"Stroop_2","internal_consistency"
"574",0,200,3000,3,"trial","median",0.51286,0.33515,0.64626,107,22733,212.457943925234,1,0.885241433021807,"Stroop_2","internal_consistency"
"575",0.8,200,3000,3,"trial","median",0.50878,0.32447,0.65574,107,22733,212.457943925234,1,0.885241433021807,"Stroop_2","internal_consistency"
"576",0.9,200,3000,3,"trial","median",0.51112,0.33129,0.66181,107,22733,212.457943925234,1,0.885241433021807,"Stroop_2","internal_consistency"
"577",0,0,2000,0,"subject","mean",0.57589,0.42348,0.6987,107,23211,216.92523364486,1,0.903855140186916,"Flanker_1","internal_consistency"
"578",0.8,0,2000,0,"subject","mean",0.57685,0.42865,0.69431,107,23211,216.92523364486,1,0.903855140186916,"Flanker_1","internal_consistency"
"579",0.9,0,2000,0,"subject","mean",0.57523,0.41611,0.69188,107,23211,216.92523364486,1,0.903855140186916,"Flanker_1","internal_consistency"
"580",0,100,2000,0,"subject","mean",0.54352,0.39776,0.66764,107,23086,215.757009345794,1,0.89898753894081,"Flanker_1","internal_consistency"
"581",0.8,100,2000,0,"subject","mean",0.55151,0.40476,0.67695,107,23086,215.757009345794,1,0.89898753894081,"Flanker_1","internal_consistency"
"582",0.9,100,2000,0,"subject","mean",0.5482,0.38671,0.67503,107,23086,215.757009345794,1,0.89898753894081,"Flanker_1","internal_consistency"
"583",0,200,2000,0,"subject","mean",0.51367,0.30791,0.66611,107,23032,215.252336448598,1,0.896884735202492,"Flanker_1","internal_consistency"
"584",0.8,200,2000,0,"subject","mean",0.50552,0.24828,0.66852,107,23032,215.252336448598,1,0.896884735202492,"Flanker_1","internal_consistency"
"585",0.9,200,2000,0,"subject","mean",0.51002,0.30927,0.66093,107,23032,215.252336448598,1,0.896884735202492,"Flanker_1","internal_consistency"
"586",0,0,3000,0,"subject","mean",0.50146,0.33406,0.64273,107,23236,217.158878504673,1,0.904828660436137,"Flanker_1","internal_consistency"
"587",0.8,0,3000,0,"subject","mean",0.50595,0.35485,0.64368,107,23236,217.158878504673,1,0.904828660436137,"Flanker_1","internal_consistency"
"588",0.9,0,3000,0,"subject","mean",0.50205,0.32163,0.64661,107,23236,217.158878504673,1,0.904828660436137,"Flanker_1","internal_consistency"
"589",0,100,3000,0,"subject","mean",0.47799,0.3069,0.62621,107,23111,215.990654205607,1,0.899961059190031,"Flanker_1","internal_consistency"
"590",0.8,100,3000,0,"subject","mean",0.48,0.27953,0.61468,107,23111,215.990654205607,1,0.899961059190031,"Flanker_1","internal_consistency"
"591",0.9,100,3000,0,"subject","mean",0.4834,0.30067,0.63905,107,23111,215.990654205607,1,0.899961059190031,"Flanker_1","internal_consistency"
"592",0,200,3000,0,"subject","mean",0.43515,0.19187,0.60457,107,23057,215.485981308411,1,0.897858255451713,"Flanker_1","internal_consistency"
"593",0.8,200,3000,0,"subject","mean",0.43426,0.19844,0.61248,107,23057,215.485981308411,1,0.897858255451713,"Flanker_1","internal_consistency"
"594",0.9,200,3000,0,"subject","mean",0.44085,0.2026,0.6062,107,23057,215.485981308411,1,0.897858255451713,"Flanker_1","internal_consistency"
"595",0,0,2000,1,"subject","mean",0.78293,0.68462,0.84791,107,18993,177.504672897196,1,0.739602803738318,"Flanker_1","internal_consistency"
"596",0.8,0,2000,1,"subject","mean",0.78592,0.70761,0.84812,107,18993,177.504672897196,1,0.739602803738318,"Flanker_1","internal_consistency"
"597",0.9,0,2000,1,"subject","mean",0.78461,0.69692,0.84944,107,18993,177.504672897196,1,0.739602803738318,"Flanker_1","internal_consistency"
"598",0,100,2000,1,"subject","mean",0.79459,0.71642,0.85305,107,18897,176.607476635514,1,0.735864485981308,"Flanker_1","internal_consistency"
"599",0.8,100,2000,1,"subject","mean",0.79274,0.72672,0.85192,107,18897,176.607476635514,1,0.735864485981308,"Flanker_1","internal_consistency"
"600",0.9,100,2000,1,"subject","mean",0.79237,0.70962,0.85192,107,18897,176.607476635514,1,0.735864485981308,"Flanker_1","internal_consistency"
"601",0,200,2000,1,"subject","mean",0.76308,0.63852,0.83912,107,18863,176.289719626168,1,0.734540498442368,"Flanker_1","internal_consistency"
"602",0.8,200,2000,1,"subject","mean",0.76274,0.60483,0.84765,107,18863,176.289719626168,1,0.734540498442368,"Flanker_1","internal_consistency"
"603",0.9,200,2000,1,"subject","mean",0.76021,0.60171,0.8395,107,18863,176.289719626168,1,0.734540498442368,"Flanker_1","internal_consistency"
"604",0,0,3000,1,"subject","mean",0.77803,0.68922,0.84558,107,19555,182.757009345794,1,0.76148753894081,"Flanker_1","internal_consistency"
"605",0.8,0,3000,1,"subject","mean",0.77846,0.67948,0.84166,107,19555,182.757009345794,1,0.76148753894081,"Flanker_1","internal_consistency"
"606",0.9,0,3000,1,"subject","mean",0.77919,0.68994,0.84369,107,19555,182.757009345794,1,0.76148753894081,"Flanker_1","internal_consistency"
"607",0,100,3000,1,"subject","mean",0.78478,0.70995,0.84781,107,19459,181.859813084112,1,0.757749221183801,"Flanker_1","internal_consistency"
"608",0.8,100,3000,1,"subject","mean",0.78562,0.71096,0.84418,107,19459,181.859813084112,1,0.757749221183801,"Flanker_1","internal_consistency"
"609",0.9,100,3000,1,"subject","mean",0.78646,0.7145,0.84609,107,19459,181.859813084112,1,0.757749221183801,"Flanker_1","internal_consistency"
"610",0,200,3000,1,"subject","mean",0.74854,0.59835,0.8319,107,19430,181.588785046729,1,0.756619937694704,"Flanker_1","internal_consistency"
"611",0.8,200,3000,1,"subject","mean",0.75111,0.5737,0.83771,107,19430,181.588785046729,1,0.756619937694704,"Flanker_1","internal_consistency"
"612",0.9,200,3000,1,"subject","mean",0.75804,0.6146,0.84535,107,19430,181.588785046729,1,0.756619937694704,"Flanker_1","internal_consistency"
"613",0,0,2000,2,"subject","mean",0.74604,0.64453,0.81986,107,22364,209.009345794393,1,0.870872274143302,"Flanker_1","internal_consistency"
"614",0.8,0,2000,2,"subject","mean",0.74577,0.64756,0.81961,107,22364,209.009345794393,1,0.870872274143302,"Flanker_1","internal_consistency"
"615",0.9,0,2000,2,"subject","mean",0.74318,0.63969,0.82065,107,22364,209.009345794393,1,0.870872274143302,"Flanker_1","internal_consistency"
"616",0,100,2000,2,"subject","mean",0.74437,0.6565,0.8176,107,22247,207.915887850467,1,0.866316199376947,"Flanker_1","internal_consistency"
"617",0.8,100,2000,2,"subject","mean",0.74529,0.64721,0.81973,107,22247,207.915887850467,1,0.866316199376947,"Flanker_1","internal_consistency"
"618",0.9,100,2000,2,"subject","mean",0.74643,0.64416,0.82561,107,22247,207.915887850467,1,0.866316199376947,"Flanker_1","internal_consistency"
"619",0,200,2000,2,"subject","mean",0.71068,0.5613,0.81183,107,22198,207.457943925234,1,0.864408099688474,"Flanker_1","internal_consistency"
"620",0.8,200,2000,2,"subject","mean",0.70813,0.53899,0.79702,107,22198,207.457943925234,1,0.864408099688474,"Flanker_1","internal_consistency"
"621",0.9,200,2000,2,"subject","mean",0.70853,0.52943,0.80645,107,22198,207.457943925234,1,0.864408099688474,"Flanker_1","internal_consistency"
"622",0,0,3000,2,"subject","mean",0.73042,0.62612,0.815,107,22469,209.990654205607,1,0.874961059190031,"Flanker_1","internal_consistency"
"623",0.8,0,3000,2,"subject","mean",0.7303,0.62592,0.80861,107,22469,209.990654205607,1,0.874961059190031,"Flanker_1","internal_consistency"
"624",0.9,0,3000,2,"subject","mean",0.72782,0.62736,0.80095,107,22469,209.990654205607,1,0.874961059190031,"Flanker_1","internal_consistency"
"625",0,100,3000,2,"subject","mean",0.72639,0.62208,0.81092,107,22352,208.897196261682,1,0.870404984423676,"Flanker_1","internal_consistency"
"626",0.8,100,3000,2,"subject","mean",0.73275,0.63409,0.81115,107,22352,208.897196261682,1,0.870404984423676,"Flanker_1","internal_consistency"
"627",0.9,100,3000,2,"subject","mean",0.72791,0.62266,0.81234,107,22352,208.897196261682,1,0.870404984423676,"Flanker_1","internal_consistency"
"628",0,200,3000,2,"subject","mean",0.6994,0.5354,0.79761,107,22300,208.411214953271,1,0.868380062305296,"Flanker_1","internal_consistency"
"629",0.8,200,3000,2,"subject","mean",0.69444,0.54922,0.78776,107,22300,208.411214953271,1,0.868380062305296,"Flanker_1","internal_consistency"
"630",0.9,200,3000,2,"subject","mean",0.69214,0.53565,0.78931,107,22300,208.411214953271,1,0.868380062305296,"Flanker_1","internal_consistency"
"631",0,0,2000,3,"subject","mean",0.71801,0.60075,0.80041,107,22832,213.383177570093,1,0.889096573208723,"Flanker_1","internal_consistency"
"632",0.8,0,2000,3,"subject","mean",0.71929,0.61754,0.80456,107,22832,213.383177570093,1,0.889096573208723,"Flanker_1","internal_consistency"
"633",0.9,0,2000,3,"subject","mean",0.7209,0.61562,0.80624,107,22832,213.383177570093,1,0.889096573208723,"Flanker_1","internal_consistency"
"634",0,100,2000,3,"subject","mean",0.70454,0.57353,0.80071,107,22710,212.242990654206,1,0.884345794392523,"Flanker_1","internal_consistency"
"635",0.8,100,2000,3,"subject","mean",0.70437,0.5891,0.78931,107,22710,212.242990654206,1,0.884345794392523,"Flanker_1","internal_consistency"
"636",0.9,100,2000,3,"subject","mean",0.7032,0.59059,0.78684,107,22710,212.242990654206,1,0.884345794392523,"Flanker_1","internal_consistency"
"637",0,200,2000,3,"subject","mean",0.69205,0.55752,0.79504,107,22653,211.710280373832,1,0.882126168224299,"Flanker_1","internal_consistency"
"638",0.8,200,2000,3,"subject","mean",0.69027,0.55277,0.79222,107,22653,211.710280373832,1,0.882126168224299,"Flanker_1","internal_consistency"
"639",0.9,200,2000,3,"subject","mean",0.6815,0.52103,0.78302,107,22653,211.710280373832,1,0.882126168224299,"Flanker_1","internal_consistency"
"640",0,0,3000,3,"subject","mean",0.72236,0.60772,0.80648,107,22882,213.85046728972,1,0.891043613707165,"Flanker_1","internal_consistency"
"641",0.8,0,3000,3,"subject","mean",0.72068,0.62505,0.79843,107,22882,213.85046728972,1,0.891043613707165,"Flanker_1","internal_consistency"
"642",0.9,0,3000,3,"subject","mean",0.71626,0.60753,0.80041,107,22882,213.85046728972,1,0.891043613707165,"Flanker_1","internal_consistency"
"643",0,100,3000,3,"subject","mean",0.70831,0.6073,0.79162,107,22760,212.710280373832,1,0.886292834890966,"Flanker_1","internal_consistency"
"644",0.8,100,3000,3,"subject","mean",0.70802,0.59858,0.79542,107,22760,212.710280373832,1,0.886292834890966,"Flanker_1","internal_consistency"
"645",0.9,100,3000,3,"subject","mean",0.70769,0.59518,0.80005,107,22760,212.710280373832,1,0.886292834890966,"Flanker_1","internal_consistency"
"646",0,200,3000,3,"subject","mean",0.68555,0.54302,0.79069,107,22704,212.18691588785,1,0.88411214953271,"Flanker_1","internal_consistency"
"647",0.8,200,3000,3,"subject","mean",0.69033,0.52492,0.78361,107,22704,212.18691588785,1,0.88411214953271,"Flanker_1","internal_consistency"
"648",0.9,200,3000,3,"subject","mean",0.68494,0.547,0.79615,107,22704,212.18691588785,1,0.88411214953271,"Flanker_1","internal_consistency"
"649",0,0,2000,0,"trial","mean",0.5719,0.4192,0.68645,107,23211,216.92523364486,1,0.903855140186916,"Flanker_1","internal_consistency"
"650",0.8,0,2000,0,"trial","mean",0.56865,0.4212,0.68166,107,23211,216.92523364486,1,0.903855140186916,"Flanker_1","internal_consistency"
"651",0.9,0,2000,0,"trial","mean",0.57475,0.42917,0.69388,107,23211,216.92523364486,1,0.903855140186916,"Flanker_1","internal_consistency"
"652",0,100,2000,0,"trial","mean",0.55413,0.39451,0.68404,107,23086,215.757009345794,1,0.89898753894081,"Flanker_1","internal_consistency"
"653",0.8,100,2000,0,"trial","mean",0.54632,0.36464,0.6776,107,23086,215.757009345794,1,0.89898753894081,"Flanker_1","internal_consistency"
"654",0.9,100,2000,0,"trial","mean",0.55524,0.39352,0.68062,107,23086,215.757009345794,1,0.89898753894081,"Flanker_1","internal_consistency"
"655",0,200,2000,0,"trial","mean",0.51068,0.27423,0.65955,107,23032,215.252336448598,1,0.896884735202492,"Flanker_1","internal_consistency"
"656",0.8,200,2000,0,"trial","mean",0.50566,0.27702,0.66508,107,23032,215.252336448598,1,0.896884735202492,"Flanker_1","internal_consistency"
"657",0.9,200,2000,0,"trial","mean",0.50939,0.28421,0.65407,107,23032,215.252336448598,1,0.896884735202492,"Flanker_1","internal_consistency"
"658",0,0,3000,0,"trial","mean",0.50636,0.33402,0.63613,107,23236,217.158878504673,1,0.904828660436137,"Flanker_1","internal_consistency"
"659",0.8,0,3000,0,"trial","mean",0.50873,0.34279,0.6458,107,23236,217.158878504673,1,0.904828660436137,"Flanker_1","internal_consistency"
"660",0.9,0,3000,0,"trial","mean",0.51046,0.35276,0.64206,107,23236,217.158878504673,1,0.904828660436137,"Flanker_1","internal_consistency"
"661",0,100,3000,0,"trial","mean",0.47813,0.29468,0.62314,107,23111,215.990654205607,1,0.899961059190031,"Flanker_1","internal_consistency"
"662",0.8,100,3000,0,"trial","mean",0.48725,0.30606,0.64907,107,23111,215.990654205607,1,0.899961059190031,"Flanker_1","internal_consistency"
"663",0.9,100,3000,0,"trial","mean",0.48258,0.29143,0.61939,107,23111,215.990654205607,1,0.899961059190031,"Flanker_1","internal_consistency"
"664",0,200,3000,0,"trial","mean",0.43331,0.18913,0.59667,107,23057,215.485981308411,1,0.897858255451713,"Flanker_1","internal_consistency"
"665",0.8,200,3000,0,"trial","mean",0.4333,0.20118,0.59668,107,23057,215.485981308411,1,0.897858255451713,"Flanker_1","internal_consistency"
"666",0.9,200,3000,0,"trial","mean",0.43548,0.18936,0.60143,107,23057,215.485981308411,1,0.897858255451713,"Flanker_1","internal_consistency"
"667",0,0,2000,1,"trial","mean",0.89195,0.84062,0.92479,107,18869,176.345794392523,1,0.734774143302181,"Flanker_1","internal_consistency"
"668",0.8,0,2000,1,"trial","mean",0.89221,0.84437,0.92495,107,18869,176.345794392523,1,0.734774143302181,"Flanker_1","internal_consistency"
"669",0.9,0,2000,1,"trial","mean",0.89023,0.8392,0.92514,107,18869,176.345794392523,1,0.734774143302181,"Flanker_1","internal_consistency"
"670",0,100,2000,1,"trial","mean",0.89314,0.85403,0.92466,107,18782,175.532710280374,1,0.731386292834891,"Flanker_1","internal_consistency"
"671",0.8,100,2000,1,"trial","mean",0.89216,0.85316,0.92103,107,18782,175.532710280374,1,0.731386292834891,"Flanker_1","internal_consistency"
"672",0.9,100,2000,1,"trial","mean",0.89087,0.85005,0.92263,107,18782,175.532710280374,1,0.731386292834891,"Flanker_1","internal_consistency"
"673",0,200,2000,1,"trial","mean",0.87256,0.77668,0.91961,107,18743,175.168224299065,1,0.729867601246106,"Flanker_1","internal_consistency"
"674",0.8,200,2000,1,"trial","mean",0.86926,0.78693,0.91539,107,18743,175.168224299065,1,0.729867601246106,"Flanker_1","internal_consistency"
"675",0.9,200,2000,1,"trial","mean",0.87259,0.77806,0.91744,107,18743,175.168224299065,1,0.729867601246106,"Flanker_1","internal_consistency"
"676",0,0,3000,1,"trial","mean",0.88333,0.83613,0.91674,107,19239,179.803738317757,1,0.749182242990654,"Flanker_1","internal_consistency"
"677",0.8,0,3000,1,"trial","mean",0.88007,0.83085,0.91914,107,19239,179.803738317757,1,0.749182242990654,"Flanker_1","internal_consistency"
"678",0.9,0,3000,1,"trial","mean",0.88087,0.8286,0.91851,107,19239,179.803738317757,1,0.749182242990654,"Flanker_1","internal_consistency"
"679",0,100,3000,1,"trial","mean",0.88373,0.84541,0.91832,107,19152,178.990654205607,1,0.745794392523364,"Flanker_1","internal_consistency"
"680",0.8,100,3000,1,"trial","mean",0.88286,0.84201,0.91552,107,19152,178.990654205607,1,0.745794392523364,"Flanker_1","internal_consistency"
"681",0.9,100,3000,1,"trial","mean",0.88455,0.8437,0.91973,107,19152,178.990654205607,1,0.745794392523364,"Flanker_1","internal_consistency"
"682",0,200,3000,1,"trial","mean",0.86052,0.76622,0.91036,107,19114,178.635514018692,1,0.744314641744548,"Flanker_1","internal_consistency"
"683",0.8,200,3000,1,"trial","mean",0.86357,0.77446,0.90918,107,19114,178.635514018692,1,0.744314641744548,"Flanker_1","internal_consistency"
"684",0.9,200,3000,1,"trial","mean",0.86009,0.77473,0.91308,107,19114,178.635514018692,1,0.744314641744548,"Flanker_1","internal_consistency"
"685",0,0,2000,2,"trial","mean",0.77431,0.68848,0.84054,107,22316,208.560747663551,1,0.869003115264797,"Flanker_1","internal_consistency"
"686",0.8,0,2000,2,"trial","mean",0.77561,0.70187,0.84554,107,22316,208.560747663551,1,0.869003115264797,"Flanker_1","internal_consistency"
"687",0.9,0,2000,2,"trial","mean",0.77531,0.68269,0.84796,107,22316,208.560747663551,1,0.869003115264797,"Flanker_1","internal_consistency"
"688",0,100,2000,2,"trial","mean",0.77248,0.68688,0.83737,107,22194,207.420560747664,1,0.864252336448598,"Flanker_1","internal_consistency"
"689",0.8,100,2000,2,"trial","mean",0.77473,0.69101,0.84615,107,22194,207.420560747664,1,0.864252336448598,"Flanker_1","internal_consistency"
"690",0.9,100,2000,2,"trial","mean",0.77165,0.6894,0.84267,107,22194,207.420560747664,1,0.864252336448598,"Flanker_1","internal_consistency"
"691",0,200,2000,2,"trial","mean",0.75446,0.61903,0.83123,107,22146,206.971962616822,1,0.862383177570093,"Flanker_1","internal_consistency"
"692",0.8,200,2000,2,"trial","mean",0.75414,0.60428,0.83052,107,22146,206.971962616822,1,0.862383177570093,"Flanker_1","internal_consistency"
"693",0.9,200,2000,2,"trial","mean",0.75225,0.62373,0.83359,107,22146,206.971962616822,1,0.862383177570093,"Flanker_1","internal_consistency"
"694",0,0,3000,2,"trial","mean",0.77601,0.68314,0.84325,107,22387,209.224299065421,1,0.871767912772586,"Flanker_1","internal_consistency"
"695",0.8,0,3000,2,"trial","mean",0.77826,0.68829,0.84326,107,22387,209.224299065421,1,0.871767912772586,"Flanker_1","internal_consistency"
"696",0.9,0,3000,2,"trial","mean",0.77883,0.69236,0.84524,107,22387,209.224299065421,1,0.871767912772586,"Flanker_1","internal_consistency"
"697",0,100,3000,2,"trial","mean",0.77181,0.67459,0.83609,107,22265,208.084112149533,1,0.867017133956386,"Flanker_1","internal_consistency"
"698",0.8,100,3000,2,"trial","mean",0.77565,0.69288,0.83925,107,22265,208.084112149533,1,0.867017133956386,"Flanker_1","internal_consistency"
"699",0.9,100,3000,2,"trial","mean",0.77218,0.67683,0.83975,107,22265,208.084112149533,1,0.867017133956386,"Flanker_1","internal_consistency"
"700",0,200,3000,2,"trial","mean",0.75364,0.6373,0.83603,107,22216,207.626168224299,1,0.865109034267913,"Flanker_1","internal_consistency"
"701",0.8,200,3000,2,"trial","mean",0.75782,0.63433,0.83475,107,22216,207.626168224299,1,0.865109034267913,"Flanker_1","internal_consistency"
"702",0.9,200,3000,2,"trial","mean",0.75808,0.63382,0.83604,107,22216,207.626168224299,1,0.865109034267913,"Flanker_1","internal_consistency"
"703",0,0,2000,3,"trial","mean",0.74343,0.64689,0.81813,107,22805,213.130841121495,1,0.888045171339564,"Flanker_1","internal_consistency"
"704",0.8,0,2000,3,"trial","mean",0.74109,0.64597,0.81694,107,22805,213.130841121495,1,0.888045171339564,"Flanker_1","internal_consistency"
"705",0.9,0,2000,3,"trial","mean",0.74067,0.63823,0.81759,107,22805,213.130841121495,1,0.888045171339564,"Flanker_1","internal_consistency"
"706",0,100,2000,3,"trial","mean",0.73133,0.61555,0.8074,107,22682,211.981308411215,1,0.883255451713396,"Flanker_1","internal_consistency"
"707",0.8,100,2000,3,"trial","mean",0.72918,0.63386,0.80833,107,22682,211.981308411215,1,0.883255451713396,"Flanker_1","internal_consistency"
"708",0.9,100,2000,3,"trial","mean",0.72949,0.61614,0.80818,107,22682,211.981308411215,1,0.883255451713396,"Flanker_1","internal_consistency"
